loggingTime(txt),accelerometerTimestamp_sinceReboot(s),accelerometerAccelerationX(G),accelerometerAccelerationY(G),accelerometerAccelerationZ(G)
2023-11-22T21:51:43.503+01:00,13754.409648875,-0.391845703125,-0.3051300048828125,-0.933746337890625
2023-11-22T21:51:43.517+01:00,13754.429586875,0.0767364501953125,-0.3084869384765625,-0.938079833984375
2023-11-22T21:51:43.532+01:00,13754.449523875,-0.18292236328125,-0.225555419921875,-0.985107421875
2023-11-22T21:51:43.552+01:00,13754.469461875,-0.1558074951171875,-0.2483367919921875,-0.958648681640625
2023-11-22T21:51:43.572+01:00,13754.489398875,-0.1168212890625,-0.293212890625,-0.92669677734375
2023-11-22T21:51:43.592+01:00,13754.509336875,-0.139404296875,-0.28173828125,-0.9357452392578125
2023-11-22T21:51:43.612+01:00,13754.529273875,-0.1221466064453125,-0.285308837890625,-0.9554290771484375
2023-11-22T21:51:43.632+01:00,13754.549211875,-0.1328125,-0.301971435546875,-0.943572998046875
2023-11-22T21:51:43.652+01:00,13754.569148875,-0.1201629638671875,-0.284423828125,-0.9302978515625
2023-11-22T21:51:43.672+01:00,13754.589086875,-0.1185455322265625,-0.267669677734375,-0.933258056640625
2023-11-22T21:51:43.694+01:00,13754.609023875,-0.1279144287109375,-0.273681640625,-0.9521026611328125
2023-11-22T21:51:43.714+01:00,13754.628961875,-0.128692626953125,-0.2696533203125,-0.9539794921875
2023-11-22T21:51:43.732+01:00,13754.648898875,-0.129791259765625,-0.2680206298828125,-0.9535064697265625
2023-11-22T21:51:43.752+01:00,13754.668836875,-0.132171630859375,-0.28240966796875,-0.9615478515625
2023-11-22T21:51:43.771+01:00,13754.688773875,-0.1346893310546875,-0.2796478271484375,-0.9516754150390625
2023-11-22T21:51:43.791+01:00,13754.708711875,-0.1341552734375,-0.26202392578125,-0.93560791015625
2023-11-22T21:51:43.811+01:00,13754.728648875,-0.1262664794921875,-0.2739410400390625,-0.935028076171875
2023-11-22T21:51:43.832+01:00,13754.748586875,-0.1335906982421875,-0.284027099609375,-0.9390411376953125
2023-11-22T21:51:43.851+01:00,13754.768523875,-0.136138916015625,-0.270843505859375,-0.944580078125
2023-11-22T21:51:43.871+01:00,13754.788461875,-0.139892578125,-0.2736663818359375,-0.949127197265625
2023-11-22T21:51:43.900+01:00,13754.808398875,-0.1291656494140625,-0.28302001953125,-0.958770751953125
2023-11-22T21:51:43.920+01:00,13754.828335875,-0.136474609375,-0.2694854736328125,-0.9618682861328125
2023-11-22T21:51:43.932+01:00,13754.848273875,-0.138458251953125,-0.2471923828125,-0.957611083984375
2023-11-22T21:51:43.951+01:00,13754.868210875,-0.14324951171875,-0.2466583251953125,-0.971435546875
2023-11-22T21:51:43.971+01:00,13754.88814941667,-0.141448974609375,-0.264404296875,-0.9738006591796875
2023-11-22T21:51:43.991+01:00,13754.90808641667,-0.140472412109375,-0.2610015869140625,-0.95928955078125
2023-11-22T21:51:44.011+01:00,13754.92802441667,-0.135345458984375,-0.2528228759765625,-0.95849609375
2023-11-22T21:51:44.031+01:00,13754.94796141667,-0.13983154296875,-0.2607574462890625,-0.95867919921875
2023-11-22T21:51:44.051+01:00,13754.96789941667,-0.1284332275390625,-0.2679595947265625,-0.9525146484375
2023-11-22T21:51:44.071+01:00,13754.98783641667,-0.130340576171875,-0.2622528076171875,-0.93798828125
2023-11-22T21:51:44.091+01:00,13755.00777441667,-0.1195831298828125,-0.2531585693359375,-0.9375457763671875
2023-11-22T21:51:44.111+01:00,13755.02771141667,-0.123443603515625,-0.2599029541015625,-0.9515380859375
2023-11-22T21:51:44.131+01:00,13755.04764941667,-0.1277313232421875,-0.2557525634765625,-0.9564971923828125
2023-11-22T21:51:44.151+01:00,13755.06758641667,-0.1307525634765625,-0.24945068359375,-0.955780029296875
2023-11-22T21:51:44.170+01:00,13755.08752441667,-0.1307373046875,-0.24932861328125,-0.9652252197265625
2023-11-22T21:51:44.190+01:00,13755.10746141667,-0.1358184814453125,-0.256500244140625,-0.9660186767578125
2023-11-22T21:51:44.210+01:00,13755.12739941667,-0.1314544677734375,-0.2550811767578125,-0.9537200927734375
2023-11-22T21:51:44.230+01:00,13755.14733641667,-0.1351776123046875,-0.2559661865234375,-0.9535675048828125
2023-11-22T21:51:44.250+01:00,13755.16727441667,-0.1413421630859375,-0.268798828125,-0.96136474609375
2023-11-22T21:51:44.270+01:00,13755.18721141667,-0.1632843017578125,-0.2783355712890625,-0.9576263427734375
2023-11-22T21:51:44.290+01:00,13755.20714941667,-0.182281494140625,-0.2888336181640625,-0.95556640625
2023-11-22T21:51:44.310+01:00,13755.22708641667,-0.2070465087890625,-0.293670654296875,-0.934326171875
2023-11-22T21:51:44.330+01:00,13755.24702341667,-0.2520751953125,-0.2975921630859375,-0.8887939453125
2023-11-22T21:51:44.350+01:00,13755.26696141667,-0.3076324462890625,-0.2776641845703125,-0.806365966796875
2023-11-22T21:51:44.370+01:00,13755.28689841667,-0.385894775390625,-0.258758544921875,-0.71697998046875
2023-11-22T21:51:44.390+01:00,13755.30683641667,-0.447418212890625,-0.2787933349609375,-0.633941650390625
2023-11-22T21:51:44.410+01:00,13755.32677341667,-0.472686767578125,-0.2695159912109375,-0.5494384765625
2023-11-22T21:51:44.430+01:00,13755.34671141667,-0.5126190185546875,-0.1981658935546875,-0.5331268310546875
2023-11-22T21:51:44.450+01:00,13755.36664841667,-0.530975341796875,-0.0786590576171875,-0.5673675537109375
2023-11-22T21:51:44.470+01:00,13755.38658641667,-0.511810302734375,-0.0423126220703125,-0.6075897216796875
2023-11-22T21:51:44.489+01:00,13755.40652341667,-0.4946136474609375,-0.007965087890625,-0.6302032470703125
2023-11-22T21:51:44.509+01:00,13755.42646141667,-0.50830078125,0.119720458984375,-0.7249298095703125
2023-11-22T21:51:44.529+01:00,13755.44639841667,-0.4956207275390625,0.366912841796875,-0.8407745361328125
2023-11-22T21:51:44.549+01:00,13755.46633641667,-0.375732421875,0.5058441162109375,-0.901641845703125
2023-11-22T21:51:44.569+01:00,13755.48627341667,-0.2478485107421875,0.4891815185546875,-0.910400390625
2023-11-22T21:51:44.590+01:00,13755.50621141667,-0.205902099609375,0.5440673828125,-0.9363555908203125
2023-11-22T21:51:44.609+01:00,13755.52614841667,-0.1767578125,0.6287994384765625,-0.9777984619140625
2023-11-22T21:51:44.629+01:00,13755.54608641667,-0.1414031982421875,0.6183929443359375,-0.9963531494140625
2023-11-22T21:51:44.649+01:00,13755.56602341667,-0.1514739990234375,0.5497589111328125,-0.99798583984375
2023-11-22T21:51:44.669+01:00,13755.58596141667,-0.14385986328125,0.4627838134765625,-0.96923828125
2023-11-22T21:51:44.689+01:00,13755.60589841667,-0.1128082275390625,0.41937255859375,-0.942108154296875
2023-11-22T21:51:44.709+01:00,13755.62583641667,-0.0758514404296875,0.4419708251953125,-0.916259765625
2023-11-22T21:51:44.729+01:00,13755.64577341667,-0.0512542724609375,0.4642791748046875,-0.88189697265625
2023-11-22T21:51:44.749+01:00,13755.66571141667,-0.04052734375,0.454681396484375,-0.8315277099609375
2023-11-22T21:51:44.769+01:00,13755.68564841667,-0.0242767333984375,0.419891357421875,-0.7675933837890625
2023-11-22T21:51:44.789+01:00,13755.70558641667,-0.0493621826171875,0.4637603759765625,-0.721221923828125
2023-11-22T21:51:44.808+01:00,13755.72552341667,-0.0815582275390625,0.504791259765625,-0.7215118408203125
2023-11-22T21:51:44.828+01:00,13755.74546141667,-0.06951904296875,0.5018310546875,-0.6937408447265625
2023-11-22T21:51:44.848+01:00,13755.76539841667,-0.1021270751953125,0.45697021484375,-0.6295013427734375
2023-11-22T21:51:44.869+01:00,13755.78533641667,-0.167633056640625,0.3967437744140625,-0.557708740234375
2023-11-22T21:51:44.888+01:00,13755.80527341667,-0.223114013671875,0.408203125,-0.5153350830078125
2023-11-22T21:51:44.908+01:00,13755.82521141667,-0.3145904541015625,0.4477996826171875,-0.4574127197265625
2023-11-22T21:51:44.928+01:00,13755.84514841667,-0.4354095458984375,0.4146881103515625,-0.3802337646484375
2023-11-22T21:51:44.948+01:00,13755.86508641667,-0.543426513671875,0.338409423828125,-0.41705322265625
2023-11-22T21:51:44.968+01:00,13755.885022375,-0.6392364501953125,0.251373291015625,-0.420867919921875
2023-11-22T21:51:44.988+01:00,13755.904960375,-0.782867431640625,0.2140350341796875,-0.4241790771484375
2023-11-22T21:51:45.008+01:00,13755.924897375,-0.892242431640625,0.14453125,-0.3618621826171875
2023-11-22T21:51:45.028+01:00,13755.944835375,-0.9448394775390625,0.096588134765625,-0.362030029296875
2023-11-22T21:51:45.048+01:00,13755.964772375,-0.9971466064453125,0.1581878662109375,-0.4217071533203125
2023-11-22T21:51:45.068+01:00,13755.984710375,-1.06927490234375,0.1605682373046875,-0.4664459228515625
2023-11-22T21:51:45.088+01:00,13756.004647375,-1.097900390625,0.18017578125,-0.475677490234375
2023-11-22T21:51:45.108+01:00,13756.024585375,-1.0975341796875,0.166900634765625,-0.4866790771484375
2023-11-22T21:51:45.128+01:00,13756.044522375,-1.129119873046875,0.18359375,-0.5028533935546875
2023-11-22T21:51:45.147+01:00,13756.064460375,-1.188079833984375,0.2958831787109375,-0.524871826171875
2023-11-22T21:51:45.167+01:00,13756.084397375,-1.124832153320312,0.39996337890625,-0.436126708984375
2023-11-22T21:51:45.187+01:00,13756.104335375,-1.095458984375,0.4365234375,-0.410491943359375
2023-11-22T21:51:45.207+01:00,13756.124272375,-1.21026611328125,0.5625,-0.390777587890625
2023-11-22T21:51:45.229+01:00,13756.144209375,-1.318145751953125,0.6358489990234375,-0.392120361328125
2023-11-22T21:51:45.254+01:00,13756.164147375,-1.322006225585938,0.749359130859375,-0.3800811767578125
2023-11-22T21:51:45.267+01:00,13756.184084375,-1.3287353515625,0.845428466796875,-0.3945770263671875
2023-11-22T21:51:45.287+01:00,13756.204022375,-1.322250366210938,0.8772430419921875,-0.3865203857421875
2023-11-22T21:51:45.307+01:00,13756.223959375,-1.1878662109375,0.8485870361328125,-0.355316162109375
2023-11-22T21:51:45.327+01:00,13756.243897375,-1.09393310546875,0.8240814208984375,-0.275146484375
2023-11-22T21:51:45.347+01:00,13756.263834375,-1.045867919921875,0.7459869384765625,-0.21929931640625
2023-11-22T21:51:45.367+01:00,13756.283772375,-0.99481201171875,0.58038330078125,-0.1986236572265625
2023-11-22T21:51:45.387+01:00,13756.303709375,-0.968719482421875,0.507171630859375,-0.169952392578125
2023-11-22T21:51:45.407+01:00,13756.323647375,-1.033096313476562,0.5368499755859375,-0.1976776123046875
2023-11-22T21:51:45.426+01:00,13756.343584375,-1.079147338867188,0.4972381591796875,-0.214813232421875
2023-11-22T21:51:45.447+01:00,13756.363522375,-1.16387939453125,0.3938446044921875,-0.1965179443359375
2023-11-22T21:51:45.466+01:00,13756.383459375,-1.2166748046875,0.4017791748046875,-0.27655029296875
2023-11-22T21:51:45.486+01:00,13756.403397375,-1.240936279296875,0.4627532958984375,-0.23553466796875
2023-11-22T21:51:45.506+01:00,13756.423334375,-1.2177734375,0.5052642822265625,-0.288177490234375
2023-11-22T21:51:45.526+01:00,13756.443272375,-1.1168212890625,0.627716064453125,-0.338592529296875
2023-11-22T21:51:45.546+01:00,13756.463209375,-1.055023193359375,0.602752685546875,-0.403594970703125
2023-11-22T21:51:45.566+01:00,13756.483147375,-1.056686401367188,0.553497314453125,-0.3951568603515625
2023-11-22T21:51:45.586+01:00,13756.503084375,-1.022964477539062,0.7295074462890625,-0.445587158203125
2023-11-22T21:51:45.606+01:00,13756.523022375,-1.031082153320312,0.7295379638671875,-0.3325347900390625
2023-11-22T21:51:45.626+01:00,13756.542959375,-1.032424926757812,0.1942596435546875,-0.1424560546875
2023-11-22T21:51:45.646+01:00,13756.562897375,-0.8462371826171875,0.5529022216796875,0.1055908203125
2023-11-22T21:51:45.666+01:00,13756.582834375,-1.117721557617188,0.808929443359375,0.04022216796875
2023-11-22T21:51:45.686+01:00,13756.602772375,-1.037994384765625,0.540679931640625,0.05572509765625
2023-11-22T21:51:45.706+01:00,13756.622709375,-0.9725494384765625,0.6478118896484375,-0.0861663818359375
2023-11-22T21:51:45.726+01:00,13756.642647375,-0.941253662109375,0.986358642578125,-0.4635467529296875
2023-11-22T21:51:45.745+01:00,13756.662584375,-0.8722991943359375,0.5565338134765625,-0.013031005859375
2023-11-22T21:51:45.765+01:00,13756.682522375,-0.843505859375,0.1828460693359375,0.1467742919921875
2023-11-22T21:51:45.785+01:00,13756.702459375,-0.9025115966796875,0.3588104248046875,0.086669921875
2023-11-22T21:51:45.805+01:00,13756.722397375,-0.859405517578125,0.479461669921875,0.0605621337890625
2023-11-22T21:51:45.825+01:00,13756.742334375,-0.7379150390625,0.379364013671875,0.1180572509765625
2023-11-22T21:51:45.845+01:00,13756.762272375,-0.6065521240234375,0.3570709228515625,0.1754913330078125
2023-11-22T21:51:45.865+01:00,13756.782209375,-0.4502716064453125,0.4593048095703125,0.288421630859375
2023-11-22T21:51:45.885+01:00,13756.802147375,-0.2757415771484375,0.530242919921875,0.4952850341796875
2023-11-22T21:51:45.905+01:00,13756.822084375,-0.1494903564453125,0.5332489013671875,0.82025146484375
2023-11-22T21:51:45.925+01:00,13756.842022375,-0.1076812744140625,0.6913909912109375,1.2110595703125
2023-11-22T21:51:45.945+01:00,13756.861959375,-0.203857421875,0.9161529541015625,1.578216552734375
2023-11-22T21:51:45.965+01:00,13756.881898375,-0.394378662109375,1.04278564453125,2.012786865234375
2023-11-22T21:51:45.985+01:00,13756.901835375,-0.7276763916015625,0.920654296875,2.528564453125
2023-11-22T21:51:46.005+01:00,13756.921773375,-1.16339111328125,0.629486083984375,3.432708740234375
2023-11-22T21:51:46.025+01:00,13756.941710375,-2.448501586914062,0.836578369140625,3.378921508789062
2023-11-22T21:51:46.044+01:00,13756.961648375,-5.652420043945312,0.835662841796875,2.501434326171875
2023-11-22T21:51:46.064+01:00,13756.981585375,-5.864089965820312,0.5888824462890625,0.8193206787109375
2023-11-22T21:51:46.084+01:00,13757.001523375,-6.030441284179688,1.929412841796875,0.109405517578125
2023-11-22T21:51:46.104+01:00,13757.021460375,-5.014266967773438,-0.0579681396484375,0.6505126953125
2023-11-22T21:51:46.124+01:00,13757.041398375,-3.764785766601562,-0.7834320068359375,3.944107055664062
2023-11-22T21:51:46.144+01:00,13757.061335375,-1.73638916015625,3.25537109375,1.586593627929688
2023-11-22T21:51:46.164+01:00,13757.081273375,-2.254409790039062,-1.612564086914062,2.373092651367188
2023-11-22T21:51:46.184+01:00,13757.101210375,-0.80731201171875,-1.325576782226562,2.989593505859375
2023-11-22T21:51:46.204+01:00,13757.121148375,-2.431533813476562,2.494720458984375,1.40594482421875
2023-11-22T21:51:46.224+01:00,13757.141085375,-2.022735595703125,-1.680465698242188,2.179336547851562
2023-11-22T21:51:46.244+01:00,13757.161023375,-1.927597045898438,-1.122055053710938,0.9793853759765625
2023-11-22T21:51:46.264+01:00,13757.180960375,-2.00274658203125,-1.552810668945312,0.411834716796875
2023-11-22T21:51:46.284+01:00,13757.200898375,-2.024856567382812,-0.9565277099609375,-0.3011016845703125
2023-11-22T21:51:46.304+01:00,13757.220835375,-1.712295532226562,-0.9387054443359375,-0.5557708740234375
2023-11-22T21:51:46.324+01:00,13757.240773375,-1.269882202148438,-0.75714111328125,-0.51214599609375
2023-11-22T21:51:46.344+01:00,13757.260710375,-1.020462036132812,-0.53802490234375,-0.5046844482421875
2023-11-22T21:51:46.364+01:00,13757.280648375,-0.9412994384765625,-0.41253662109375,-0.5
2023-11-22T21:51:46.384+01:00,13757.300585375,-0.9616546630859375,-0.243011474609375,-0.5187835693359375
2023-11-22T21:51:46.403+01:00,13757.320523375,-1.009521484375,-0.054718017578125,-0.608489990234375
2023-11-22T21:51:46.423+01:00,13757.340460375,-0.98358154296875,0.1880340576171875,-0.6974029541015625
2023-11-22T21:51:46.443+01:00,13757.360398375,-0.872100830078125,0.407623291015625,-0.7232666015625
2023-11-22T21:51:46.463+01:00,13757.380335375,-0.7859649658203125,0.61865234375,-0.7591094970703125
2023-11-22T21:51:46.483+01:00,13757.400273375,-0.852996826171875,1.02984619140625,-0.8158721923828125
2023-11-22T21:51:46.503+01:00,13757.420210375,-0.875732421875,1.374847412109375,-0.894989013671875
2023-11-22T21:51:46.523+01:00,13757.440148375,-0.6796722412109375,1.431655883789062,-0.815704345703125
2023-11-22T21:51:46.543+01:00,13757.460085375,-0.479156494140625,1.350967407226562,-0.6579742431640625
2023-11-22T21:51:46.563+01:00,13757.480023375,-0.3944549560546875,1.336685180664062,-0.5135650634765625
2023-11-22T21:51:46.583+01:00,13757.499960375,-0.3654632568359375,1.35662841796875,-0.4254302978515625
2023-11-22T21:51:46.603+01:00,13757.519898375,-0.3411712646484375,1.3438720703125,-0.372314453125
2023-11-22T21:51:46.623+01:00,13757.539835375,-0.2701873779296875,1.287948608398438,-0.3015594482421875
2023-11-22T21:51:46.643+01:00,13757.559773375,-0.2389373779296875,1.255081176757812,-0.250244140625
2023-11-22T21:51:46.663+01:00,13757.579710375,-0.272003173828125,1.217697143554688,-0.2571258544921875
2023-11-22T21:51:46.683+01:00,13757.599648375,-0.2497711181640625,1.162796020507812,-0.2354888916015625
2023-11-22T21:51:46.703+01:00,13757.619585375,-0.1596221923828125,1.270919799804688,-0.21893310546875
2023-11-22T21:51:46.722+01:00,13757.639523375,-0.09674072265625,1.3548583984375,-0.2181243896484375
2023-11-22T21:51:46.742+01:00,13757.659460375,-0.113128662109375,1.323867797851562,-0.1984405517578125
2023-11-22T21:51:46.762+01:00,13757.679398375,-0.1412353515625,1.204177856445312,-0.1972198486328125
2023-11-22T21:51:46.782+01:00,13757.699335375,-0.1111297607421875,1.104965209960938,-0.1990814208984375
2023-11-22T21:51:46.802+01:00,13757.719273375,-0.0961456298828125,1.105361938476562,-0.2009429931640625
2023-11-22T21:51:46.822+01:00,13757.739210375,-0.1121063232421875,1.125579833984375,-0.187530517578125
2023-11-22T21:51:46.842+01:00,13757.759148375,-0.103607177734375,1.128082275390625,-0.19232177734375
2023-11-22T21:51:46.862+01:00,13757.779085375,-0.110443115234375,1.118301391601562,-0.1938934326171875
2023-11-22T21:51:46.882+01:00,13757.799023375,-0.1132354736328125,1.090118408203125,-0.1537322998046875
2023-11-22T21:51:46.902+01:00,13757.818961375,-0.1355743408203125,1.067916870117188,-0.161651611328125
2023-11-22T21:51:46.922+01:00,13757.838898375,-0.151397705078125,1.102981567382812,-0.15142822265625
2023-11-22T21:51:46.942+01:00,13757.858836375,-0.1983795166015625,1.235366821289062,-0.145904541015625
2023-11-22T21:51:46.962+01:00,13757.87877379167,-0.2224578857421875,1.264480590820312,-0.1427154541015625
2023-11-22T21:51:46.982+01:00,13757.89871179167,-0.2261962890625,1.176620483398438,-0.1314239501953125
2023-11-22T21:51:47.002+01:00,13757.91864879167,-0.2513885498046875,1.105178833007812,-0.128326416015625
2023-11-22T21:51:47.021+01:00,13757.93858679167,-0.3259735107421875,1.07708740234375,-0.1190032958984375
2023-11-22T21:51:47.041+01:00,13757.95852379167,-0.40142822265625,1.081954956054688,-0.0864410400390625
2023-11-22T21:51:47.061+01:00,13757.97846179167,-0.506805419921875,1.098297119140625,-0.0578155517578125
2023-11-22T21:51:47.081+01:00,13757.99839879167,-0.5710601806640625,0.9887542724609375,-0.034271240234375
2023-11-22T21:51:47.101+01:00,13758.01833679167,-0.570281982421875,0.9046478271484375,-0.005126953125
2023-11-22T21:51:47.121+01:00,13758.03827379167,-0.6033477783203125,0.808563232421875,0.01458740234375
2023-11-22T21:51:47.141+01:00,13758.05821179167,-0.6065826416015625,0.7308807373046875,0.0318603515625
2023-11-22T21:51:47.161+01:00,13758.07814879167,-0.5934600830078125,0.67218017578125,0.031829833984375
2023-11-22T21:51:47.181+01:00,13758.09808679167,-0.6225433349609375,0.65753173828125,0.0632781982421875
2023-11-22T21:51:47.201+01:00,13758.11802379167,-0.618743896484375,0.5810394287109375,0.066802978515625
2023-11-22T21:51:47.221+01:00,13758.13796179167,-0.583251953125,0.5117340087890625,0.0729827880859375
2023-11-22T21:51:47.241+01:00,13758.15789879167,-0.581024169921875,0.451202392578125,0.03936767578125
2023-11-22T21:51:47.261+01:00,13758.17783679167,-0.5533447265625,0.407928466796875,0.0428314208984375
2023-11-22T21:51:47.281+01:00,13758.19777379167,-0.501373291015625,0.3393707275390625,0.02850341796875
2023-11-22T21:51:47.301+01:00,13758.21771179167,-0.4971160888671875,0.2869873046875,-0.0918731689453125
2023-11-22T21:51:47.321+01:00,13758.23764879167,-0.4716339111328125,0.3266754150390625,-0.304656982421875
2023-11-22T21:51:47.341+01:00,13758.25758679167,-0.4909515380859375,0.4160003662109375,-0.44561767578125
2023-11-22T21:51:47.360+01:00,13758.27752379167,-0.587615966796875,0.5811614990234375,-0.637908935546875
2023-11-22T21:51:47.380+01:00,13758.29746179167,-0.779937744140625,1.069412231445312,-0.721282958984375
2023-11-22T21:51:47.400+01:00,13758.31739879167,-0.9464263916015625,1.408523559570312,-0.84814453125
2023-11-22T21:51:47.420+01:00,13758.33733679167,-0.8873748779296875,1.3145751953125,-0.92742919921875
2023-11-22T21:51:47.440+01:00,13758.35727379167,-0.9991455078125,1.637008666992188,-1.123825073242188
2023-11-22T21:51:47.460+01:00,13758.37721179167,-0.89520263671875,1.992919921875,-1.151962280273438
2023-11-22T21:51:47.480+01:00,13758.39714879167,-0.8083343505859375,1.463882446289062,-1.12017822265625
2023-11-22T21:51:47.500+01:00,13758.41708679167,-0.8421630859375,1.120010375976562,-1.090850830078125
2023-11-22T21:51:47.520+01:00,13758.43702379167,-0.7450103759765625,1.10791015625,-1.135940551757812
2023-11-22T21:51:47.540+01:00,13758.45696179167,-0.688201904296875,1.08319091796875,-1.18585205078125
2023-11-22T21:51:47.560+01:00,13758.47689879167,-0.6514434814453125,1.023941040039062,-1.015884399414062
2023-11-22T21:51:47.580+01:00,13758.49683679167,-0.566497802734375,0.723358154296875,-0.828582763671875
2023-11-22T21:51:47.600+01:00,13758.51677379167,-0.5584259033203125,0.670074462890625,-0.7091064453125
2023-11-22T21:51:47.620+01:00,13758.53671179167,-0.4198760986328125,0.7734375,-0.68365478515625
2023-11-22T21:51:47.640+01:00,13758.55664879167,-0.3639678955078125,0.6719818115234375,-0.6856231689453125
2023-11-22T21:51:47.660+01:00,13758.57658679167,-0.2630615234375,0.65545654296875,-0.6395416259765625
2023-11-22T21:51:47.679+01:00,13758.59652379167,-0.18707275390625,0.520599365234375,-0.594940185546875
2023-11-22T21:51:47.699+01:00,13758.61646179167,-0.199493408203125,0.543487548828125,-0.651031494140625
2023-11-22T21:51:47.719+01:00,13758.63639879167,-0.1839447021484375,0.4975433349609375,-0.512420654296875
2023-11-22T21:51:47.739+01:00,13758.65633679167,-0.1415557861328125,0.410064697265625,-0.3506011962890625
2023-11-22T21:51:47.759+01:00,13758.67627379167,-0.0890045166015625,0.6734771728515625,-0.408111572265625
2023-11-22T21:51:47.779+01:00,13758.69621179167,-0.1627655029296875,1.09881591796875,-0.6761322021484375
2023-11-22T21:51:47.799+01:00,13758.71614879167,-0.1922454833984375,1.47564697265625,-0.699676513671875
2023-11-22T21:51:47.819+01:00,13758.73608679167,-0.194610595703125,1.408447265625,-0.6773223876953125
2023-11-22T21:51:47.839+01:00,13758.75602379167,-0.0373687744140625,1.291534423828125,-0.551116943359375
2023-11-22T21:51:47.859+01:00,13758.77596179167,0.1183013916015625,1.454498291015625,-0.6146240234375
2023-11-22T21:51:47.879+01:00,13758.79589879167,0.331146240234375,1.314682006835938,-0.61358642578125
2023-11-22T21:51:47.899+01:00,13758.81583679167,0.5222930908203125,1.0628662109375,-0.4504852294921875
2023-11-22T21:51:47.919+01:00,13758.83577379167,0.67523193359375,0.667022705078125,-0.3114166259765625
2023-11-22T21:51:47.939+01:00,13758.85571179167,0.78497314453125,0.558563232421875,-0.3282928466796875
2023-11-22T21:51:47.959+01:00,13758.87564879167,0.75054931640625,0.6346282958984375,-0.3241424560546875
2023-11-22T21:51:47.979+01:00,13758.895585625,0.71295166015625,0.4608612060546875,-0.1580810546875
2023-11-22T21:51:47.998+01:00,13758.915522625,0.7152099609375,0.2046966552734375,-0.11016845703125
2023-11-22T21:51:48.018+01:00,13758.935460625,0.6829376220703125,0.06817626953125,-0.1138916015625
2023-11-22T21:51:48.038+01:00,13758.955397625,0.6207427978515625,0.070892333984375,-0.2103729248046875
2023-11-22T21:51:48.058+01:00,13758.975335625,0.62579345703125,0.0922698974609375,-0.344757080078125
2023-11-22T21:51:48.078+01:00,13758.995272625,0.640045166015625,0.060150146484375,-0.4034881591796875
2023-11-22T21:51:48.098+01:00,13759.015210625,0.682342529296875,0.0589599609375,-0.480072021484375
2023-11-22T21:51:48.118+01:00,13759.035147625,0.712799072265625,0.234710693359375,-0.5840911865234375
2023-11-22T21:51:48.138+01:00,13759.055085625,0.78265380859375,0.39453125,-0.6365966796875
2023-11-22T21:51:48.158+01:00,13759.075022625,0.8256072998046875,0.1881256103515625,-0.6356353759765625
2023-11-22T21:51:48.178+01:00,13759.094960625,0.9347076416015625,0.00421142578125,-0.6131439208984375
2023-11-22T21:51:48.198+01:00,13759.114897625,1.037185668945312,0.0767974853515625,-0.627593994140625
2023-11-22T21:51:48.218+01:00,13759.134835625,1.075775146484375,0.4124298095703125,-0.5772552490234375
2023-11-22T21:51:48.238+01:00,13759.154772625,0.9299163818359375,0.3645172119140625,-0.6548919677734375
2023-11-22T21:51:48.258+01:00,13759.174710625,0.7363128662109375,0.355194091796875,-0.7889556884765625
2023-11-22T21:51:48.278+01:00,13759.194647625,0.6739654541015625,0.31170654296875,-0.903228759765625
2023-11-22T21:51:48.298+01:00,13759.214585625,0.6568145751953125,0.2247772216796875,-0.7644195556640625
2023-11-22T21:51:48.317+01:00,13759.234522625,0.6826324462890625,0.1988525390625,-0.74737548828125
2023-11-22T21:51:48.337+01:00,13759.254460625,0.6660003662109375,0.366180419921875,-0.846038818359375
2023-11-22T21:51:48.357+01:00,13759.274397625,0.685791015625,0.0850830078125,-0.9370269775390625
2023-11-22T21:51:48.377+01:00,13759.294335625,0.88916015625,-0.104339599609375,-0.8001861572265625
2023-11-22T21:51:48.397+01:00,13759.314272625,1.048080444335938,0.26934814453125,-0.93359375
2023-11-22T21:51:48.417+01:00,13759.334210625,1.04473876953125,0.535003662109375,-1.061508178710938
2023-11-22T21:51:48.437+01:00,13759.354147625,1.259689331054688,0.294677734375,-1.118759155273438
2023-11-22T21:51:48.457+01:00,13759.374085625,1.810592651367188,0.53863525390625,-1.183090209960938
2023-11-22T21:51:48.477+01:00,13759.394022625,2.071853637695312,1.104934692382812,-0.8642120361328125
2023-11-22T21:51:48.497+01:00,13759.413960625,1.974594116210938,0.6693878173828125,-0.1518096923828125
2023-11-22T21:51:48.517+01:00,13759.433897625,1.6795654296875,0.1555938720703125,0.588348388671875
2023-11-22T21:51:48.537+01:00,13759.453835625,1.449737548828125,0.0735626220703125,1.269180297851562
2023-11-22T21:51:48.557+01:00,13759.473772625,0.941314697265625,-0.55938720703125,2.063934326171875
2023-11-22T21:51:48.577+01:00,13759.493710625,0.0962371826171875,-1.958663940429688,3.717575073242188
2023-11-22T21:51:48.597+01:00,13759.513647625,-0.5337066650390625,-2.889999389648438,6.05908203125
2023-11-22T21:51:48.617+01:00,13759.533585625,-0.5775604248046875,-3.224334716796875,8.780975341796875
2023-11-22T21:51:48.636+01:00,13759.553522625,-2.090728759765625,-2.142837524414062,10.03004455566406
2023-11-22T21:51:48.657+01:00,13759.573460625,-6.531570434570312,1.683547973632812,9.205215454101562
2023-11-22T21:51:48.676+01:00,13759.593397625,-8.956710815429688,3.045318603515625,3.958892822265625
2023-11-22T21:51:48.696+01:00,13759.613335625,-11.27096557617188,7.447738647460938,-1.8857421875
2023-11-22T21:51:48.716+01:00,13759.633272625,-13.36660766601562,10.90859985351562,-0.123291015625
2023-11-22T21:51:48.736+01:00,13759.653210625,-15.28802490234375,14.45329284667969,3.348709106445312
2023-11-22T21:51:48.756+01:00,13759.673147625,-8.849151611328125,-12.42852783203125,8.431686401367188
2023-11-22T21:51:48.776+01:00,13759.693085625,-1.858932495117188,3.65283203125,5.376235961914062
2023-11-22T21:51:48.796+01:00,13759.713022625,-7.470489501953125,-0.3470306396484375,3.111801147460938
2023-11-22T21:51:48.816+01:00,13759.732960625,-1.915634155273438,-3.007553100585938,2.224533081054688
2023-11-22T21:51:48.836+01:00,13759.752897625,-2.044784545898438,-3.501785278320312,1.87261962890625
2023-11-22T21:51:48.856+01:00,13759.772835625,-1.6683349609375,-1.540130615234375,1.397750854492188
2023-11-22T21:51:48.876+01:00,13759.792772625,-1.179489135742188,-1.790191650390625,0.4591827392578125
2023-11-22T21:51:48.896+01:00,13759.812710625,-0.7748565673828125,-1.71466064453125,-0.2124481201171875
2023-11-22T21:51:48.916+01:00,13759.832647625,-0.77197265625,-1.098052978515625,-0.3531341552734375
2023-11-22T21:51:48.936+01:00,13759.852585625,-1.115447998046875,0.0085296630859375,-0.26171875
2023-11-22T21:51:48.955+01:00,13759.872522625,-1.722900390625,1.189361572265625,-0.11334228515625
2023-11-22T21:51:48.975+01:00,13759.89246125,-2.573196411132812,1.507171630859375,-0.261322021484375
2023-11-22T21:51:48.995+01:00,13759.91239825,-4.368270874023438,1.652694702148438,-1.30853271484375
2023-11-22T21:51:49.015+01:00,13759.93233625,-4.788040161132812,0.9315948486328125,-3.498153686523438
2023-11-22T21:51:49.035+01:00,13759.95227325,-4.458023071289062,0.7623291015625,-4.238418579101562
2023-11-22T21:51:49.055+01:00,13759.97221125,-3.592758178710938,1.101959228515625,-2.899017333984375
2023-11-22T21:51:49.075+01:00,13759.99214825,-3.013046264648438,1.862960815429688,-3.157089233398438
2023-11-22T21:51:49.095+01:00,13760.01208625,-2.02398681640625,1.311279296875,-3.2142333984375
2023-11-22T21:51:49.115+01:00,13760.03202325,-1.315353393554688,0.370025634765625,-1.829483032226562
2023-11-22T21:51:49.135+01:00,13760.05196125,-0.5315399169921875,-0.447967529296875,-1.434967041015625
2023-11-22T21:51:49.155+01:00,13760.07189825,0.1802215576171875,0.1873626708984375,-0.852874755859375
2023-11-22T21:51:49.175+01:00,13760.09183625,0.301513671875,0.9215545654296875,-0.80767822265625
2023-11-22T21:51:49.195+01:00,13760.11177325,0.1279449462890625,0.65130615234375,-0.80670166015625
2023-11-22T21:51:49.215+01:00,13760.13171125,-0.0724639892578125,0.4472198486328125,-0.5424041748046875
2023-11-22T21:51:49.235+01:00,13760.15164825,-0.2300567626953125,0.252685546875,-0.42376708984375
2023-11-22T21:51:49.254+01:00,13760.17158625,-0.375274658203125,0.353271484375,-0.3064422607421875
2023-11-22T21:51:49.275+01:00,13760.19152325,-0.5318145751953125,0.686126708984375,-0.351226806640625
2023-11-22T21:51:49.294+01:00,13760.21146125,-0.770233154296875,0.909881591796875,-0.443878173828125
2023-11-22T21:51:49.314+01:00,13760.23139825,-0.995941162109375,0.9400482177734375,-0.5712432861328125
2023-11-22T21:51:49.334+01:00,13760.25133625,-1.058181762695312,0.9043121337890625,-0.7025909423828125
2023-11-22T21:51:49.354+01:00,13760.27127325,-1.083465576171875,0.71881103515625,-0.7598114013671875
2023-11-22T21:51:49.374+01:00,13760.29121125,-0.960479736328125,0.753753662109375,-0.7308502197265625
2023-11-22T21:51:49.394+01:00,13760.31114825,-0.8927001953125,0.675689697265625,-0.783050537109375
2023-11-22T21:51:49.414+01:00,13760.33108625,-0.836639404296875,0.7159576416015625,-0.822296142578125
2023-11-22T21:51:49.434+01:00,13760.35102325,-0.7262725830078125,0.8277435302734375,-0.89044189453125
2023-11-22T21:51:49.454+01:00,13760.37096125,-0.601043701171875,0.74163818359375,-0.8830718994140625
2023-11-22T21:51:49.474+01:00,13760.39089825,-0.53289794921875,0.544189453125,-0.841461181640625
2023-11-22T21:51:49.494+01:00,13760.41083625,-0.5083160400390625,0.67327880859375,-0.7731170654296875
2023-11-22T21:51:49.514+01:00,13760.43077325,-0.4552001953125,0.783782958984375,-0.757659912109375
2023-11-22T21:51:49.534+01:00,13760.45071125,-0.4185791015625,0.7545166015625,-0.7494354248046875
2023-11-22T21:51:49.554+01:00,13760.47064825,-0.4461822509765625,0.8021087646484375,-0.74249267578125
2023-11-22T21:51:49.573+01:00,13760.49058625,-0.4051361083984375,0.8970489501953125,-0.6522674560546875
2023-11-22T21:51:49.593+01:00,13760.51052325,-0.4139556884765625,0.978302001953125,-0.6890411376953125
2023-11-22T21:51:49.613+01:00,13760.53046125,-0.41387939453125,1.0408935546875,-0.6409912109375
2023-11-22T21:51:49.633+01:00,13760.55039825,-0.4278106689453125,1.016510009765625,-0.580902099609375
2023-11-22T21:51:49.653+01:00,13760.57033625,-0.4473876953125,0.9226837158203125,-0.573211669921875
2023-11-22T21:51:49.673+01:00,13760.59027325,-0.4394378662109375,0.92547607421875,-0.5345916748046875
2023-11-22T21:51:49.693+01:00,13760.61021125,-0.44073486328125,0.9459686279296875,-0.547943115234375
2023-11-22T21:51:49.713+01:00,13760.63014825,-0.3997344970703125,0.8840789794921875,-0.5316925048828125
2023-11-22T21:51:49.733+01:00,13760.65008625,-0.358489990234375,0.8013916015625,-0.4626617431640625
2023-11-22T21:51:49.753+01:00,13760.67002325,-0.3241729736328125,0.626708984375,-0.395751953125
2023-11-22T21:51:49.773+01:00,13760.68996125,-0.2450103759765625,0.5331573486328125,-0.35687255859375
2023-11-22T21:51:49.793+01:00,13760.70989825,-0.215545654296875,0.4296722412109375,-0.3530120849609375
2023-11-22T21:51:49.813+01:00,13760.72983625,-0.180084228515625,0.4172515869140625,-0.3397979736328125
2023-11-22T21:51:49.833+01:00,13760.74977325,-0.14886474609375,0.364166259765625,-0.3350982666015625
2023-11-22T21:51:49.853+01:00,13760.76971125,-0.1113739013671875,0.3368072509765625,-0.3213653564453125
2023-11-22T21:51:49.873+01:00,13760.78964825,-0.1167449951171875,0.2919769287109375,-0.3067474365234375
2023-11-22T21:51:49.892+01:00,13760.80958625,-0.0982666015625,0.298614501953125,-0.36083984375
2023-11-22T21:51:49.912+01:00,13760.82952325,-0.0870513916015625,0.299896240234375,-0.421722412109375
2023-11-22T21:51:49.932+01:00,13760.84946125,-0.1035614013671875,0.353271484375,-0.481597900390625
2023-11-22T21:51:49.952+01:00,13760.86939825,-0.14715576171875,0.3939666748046875,-0.54388427734375
2023-11-22T21:51:49.972+01:00,13760.889336125,-0.195404052734375,0.4996337890625,-0.576751708984375
2023-11-22T21:51:49.992+01:00,13760.909273125,-0.2579193115234375,0.7893218994140625,-0.7044525146484375
2023-11-22T21:51:50.012+01:00,13760.929211125,-0.2582244873046875,0.995452880859375,-0.8488006591796875
2023-11-22T21:51:50.032+01:00,13760.949148125,-0.3234710693359375,0.869720458984375,-0.9182586669921875
2023-11-22T21:51:50.052+01:00,13760.969086125,-0.39276123046875,0.9282379150390625,-0.9488677978515625
2023-11-22T21:51:50.072+01:00,13760.989023125,-0.5421905517578125,1.113754272460938,-1.004180908203125
2023-11-22T21:51:50.092+01:00,13761.008961125,-0.6430511474609375,1.117706298828125,-1.152069091796875
2023-11-22T21:51:50.112+01:00,13761.028898125,-0.6584625244140625,1.082290649414062,-1.162353515625
2023-11-22T21:51:50.132+01:00,13761.048836125,-0.61187744140625,0.9086456298828125,-1.062164306640625
2023-11-22T21:51:50.152+01:00,13761.068773125,-0.5190277099609375,0.76422119140625,-0.94927978515625
2023-11-22T21:51:50.172+01:00,13761.088711125,-0.4155426025390625,0.646392822265625,-0.8506011962890625
2023-11-22T21:51:50.192+01:00,13761.108648125,-0.3455352783203125,0.639984130859375,-0.817596435546875
2023-11-22T21:51:50.212+01:00,13761.128585125,-0.2955169677734375,0.5454559326171875,-0.748626708984375
2023-11-22T21:51:50.231+01:00,13761.148523125,-0.305755615234375,0.498016357421875,-0.7345428466796875
2023-11-22T21:51:50.251+01:00,13761.168460125,-0.27423095703125,0.4885101318359375,-0.68896484375
2023-11-22T21:51:50.271+01:00,13761.188398125,-0.2595367431640625,0.4951934814453125,-0.6713104248046875
2023-11-22T21:51:50.291+01:00,13761.208335125,-0.2505035400390625,0.4712371826171875,-0.6131744384765625
2023-11-22T21:51:50.311+01:00,13761.228273125,-0.25360107421875,0.4390411376953125,-0.58172607421875
2023-11-22T21:51:50.331+01:00,13761.248210125,-0.221466064453125,0.3649749755859375,-0.5173492431640625
2023-11-22T21:51:50.351+01:00,13761.268148125,-0.2160797119140625,0.23760986328125,-0.4603118896484375
2023-11-22T21:51:50.371+01:00,13761.288085125,-0.1751861572265625,0.194488525390625,-0.485198974609375
2023-11-22T21:51:50.391+01:00,13761.308023125,-0.1123046875,0.1761016845703125,-0.5036163330078125
2023-11-22T21:51:50.411+01:00,13761.327960125,-0.1632843017578125,0.2635498046875,-0.612030029296875
2023-11-22T21:51:50.431+01:00,13761.347898125,-0.1244049072265625,0.358306884765625,-0.7784271240234375
2023-11-22T21:51:50.451+01:00,13761.367835125,-0.054840087890625,0.5463714599609375,-0.97210693359375
2023-11-22T21:51:50.471+01:00,13761.387773125,-0.056915283203125,0.6445770263671875,-1.148025512695312
2023-11-22T21:51:50.491+01:00,13761.407710125,-0.0958709716796875,0.6391448974609375,-1.250961303710938
2023-11-22T21:51:50.511+01:00,13761.427648125,-0.0941925048828125,0.8157196044921875,-1.347702026367188
2023-11-22T21:51:50.531+01:00,13761.447585125,-0.147308349609375,0.8388519287109375,-1.478347778320312
2023-11-22T21:51:50.550+01:00,13761.467523125,-0.1698455810546875,1.047943115234375,-1.4844970703125
2023-11-22T21:51:50.570+01:00,13761.487460125,-0.0725860595703125,0.93719482421875,-1.379379272460938
2023-11-22T21:51:50.590+01:00,13761.507398125,-0.0876922607421875,0.7090911865234375,-1.213882446289062
2023-11-22T21:51:50.610+01:00,13761.527335125,-0.080596923828125,0.6882171630859375,-1.10589599609375
2023-11-22T21:51:50.630+01:00,13761.547273125,-0.033660888671875,0.659820556640625,-1.000442504882812
2023-11-22T21:51:50.650+01:00,13761.567210125,-0.0324554443359375,0.57257080078125,-0.897491455078125
2023-11-22T21:51:50.670+01:00,13761.587148125,0.005767822265625,0.6277923583984375,-0.8234405517578125
2023-11-22T21:51:50.690+01:00,13761.607085125,0.055816650390625,0.5852508544921875,-0.787841796875
2023-11-22T21:51:50.710+01:00,13761.627023125,0.069580078125,0.574859619140625,-0.7643890380859375
2023-11-22T21:51:50.730+01:00,13761.646960125,0.1224365234375,0.5736083984375,-0.694091796875
2023-11-22T21:51:50.750+01:00,13761.666898125,0.1292877197265625,0.677734375,-0.724700927734375
2023-11-22T21:51:50.770+01:00,13761.686835125,0.10009765625,0.8317413330078125,-0.698028564453125
2023-11-22T21:51:50.790+01:00,13761.706773125,0.1070098876953125,0.8325958251953125,-0.718414306640625
2023-11-22T21:51:50.810+01:00,13761.726710125,0.1414794921875,0.782745361328125,-0.6858062744140625
2023-11-22T21:51:50.830+01:00,13761.746648125,0.150115966796875,0.780364990234375,-0.6782073974609375
2023-11-22T21:51:50.850+01:00,13761.766585125,0.172393798828125,0.8397369384765625,-0.7219696044921875
2023-11-22T21:51:50.869+01:00,13761.786523125,0.1905975341796875,0.7811279296875,-0.68304443359375
2023-11-22T21:51:50.889+01:00,13761.806460125,0.205657958984375,0.6400299072265625,-0.6408843994140625
2023-11-22T21:51:50.909+01:00,13761.826397125,0.2316741943359375,0.6840362548828125,-0.6148223876953125
2023-11-22T21:51:50.929+01:00,13761.846335125,0.242401123046875,0.6818695068359375,-0.5994873046875
2023-11-22T21:51:50.949+01:00,13761.866272125,0.236053466796875,0.5896759033203125,-0.5860748291015625
2023-11-22T21:51:50.969+01:00,13761.88620966667,0.248260498046875,0.4474029541015625,-0.5246734619140625
2023-11-22T21:51:50.989+01:00,13761.90614666667,0.29266357421875,0.3907318115234375,-0.494903564453125
2023-11-22T21:51:51.009+01:00,13761.92608466667,0.4110107421875,0.3118438720703125,-0.5207977294921875
2023-11-22T21:51:51.029+01:00,13761.94602166667,0.506591796875,0.2332000732421875,-0.5702667236328125
2023-11-22T21:51:51.049+01:00,13761.96595966667,0.549072265625,0.1893463134765625,-0.6074676513671875
2023-11-22T21:51:51.069+01:00,13761.98589666667,0.5580902099609375,0.2238311767578125,-0.62176513671875
2023-11-22T21:51:51.089+01:00,13762.00583466667,0.5966949462890625,0.265777587890625,-0.6968536376953125
2023-11-22T21:51:51.109+01:00,13762.02577166667,0.6179656982421875,0.2767791748046875,-0.7927398681640625
2023-11-22T21:51:51.129+01:00,13762.04570966667,0.648529052734375,0.243621826171875,-0.7948760986328125
2023-11-22T21:51:51.149+01:00,13762.06564666667,0.7586517333984375,0.224853515625,-0.784423828125
2023-11-22T21:51:51.169+01:00,13762.08558466667,0.8584747314453125,0.3457489013671875,-0.7849884033203125
2023-11-22T21:51:51.189+01:00,13762.10552166667,0.9270172119140625,0.277374267578125,-0.7823638916015625
2023-11-22T21:51:51.208+01:00,13762.12545966667,0.9803466796875,0.1541900634765625,-0.7350006103515625
2023-11-22T21:51:51.228+01:00,13762.14539666667,0.9693603515625,0.09844970703125,-0.70452880859375
2023-11-22T21:51:51.248+01:00,13762.16533466667,0.861114501953125,0.176025390625,-0.6646881103515625
2023-11-22T21:51:51.268+01:00,13762.18527166667,0.766845703125,0.2502593994140625,-0.63385009765625
2023-11-22T21:51:51.288+01:00,13762.20520966667,0.660003662109375,0.2061767578125,-0.6229248046875
2023-11-22T21:51:51.308+01:00,13762.22514666667,0.5802001953125,0.242462158203125,-0.572021484375
2023-11-22T21:51:51.328+01:00,13762.24508466667,0.566009521484375,0.30938720703125,-0.61175537109375
2023-11-22T21:51:51.348+01:00,13762.26502166667,0.5639190673828125,0.485870361328125,-0.7382354736328125
2023-11-22T21:51:51.368+01:00,13762.28495966667,0.5075225830078125,0.68743896484375,-0.888671875
2023-11-22T21:51:51.388+01:00,13762.30489666667,0.5082244873046875,0.8787689208984375,-0.9573974609375
2023-11-22T21:51:51.408+01:00,13762.32483366667,0.7085113525390625,0.7938995361328125,-0.9944305419921875
2023-11-22T21:51:51.428+01:00,13762.34477166667,0.952880859375,0.954803466796875,-1.14605712890625
2023-11-22T21:51:51.448+01:00,13762.36470866667,1.228561401367188,1.115631103515625,-1.233932495117188
2023-11-22T21:51:51.468+01:00,13762.38464666667,1.444442749023438,0.902130126953125,-1.255844116210938
2023-11-22T21:51:51.487+01:00,13762.40458366667,1.54876708984375,0.69744873046875,-1.32379150390625
2023-11-22T21:51:51.507+01:00,13762.42452166667,1.56439208984375,0.7567596435546875,-1.235214233398438
2023-11-22T21:51:51.527+01:00,13762.44445866667,1.638046264648438,0.57135009765625,-0.709869384765625
2023-11-22T21:51:51.547+01:00,13762.46439666667,1.657012939453125,0.15045166015625,0.0078582763671875
2023-11-22T21:51:51.567+01:00,13762.48433366667,1.60736083984375,-0.156219482421875,0.97320556640625
2023-11-22T21:51:51.587+01:00,13762.50427166667,1.207244873046875,-0.054412841796875,2.502670288085938
2023-11-22T21:51:51.607+01:00,13762.52420866667,0.24517822265625,-0.1161346435546875,5.110733032226562
2023-11-22T21:51:51.627+01:00,13762.54414666667,-0.3268585205078125,-0.4564666748046875,8.4083251953125
2023-11-22T21:51:51.647+01:00,13762.56408366667,-0.5481109619140625,-0.2828369140625,10.91720581054688
2023-11-22T21:51:51.667+01:00,13762.58402166667,-5.803115844726562,0.5287017822265625,10.84330749511719
2023-11-22T21:51:51.687+01:00,13762.60395866667,-10.3408203125,3.3486328125,6.586074829101562
2023-11-22T21:51:51.707+01:00,13762.62389666667,-13.67970275878906,6.822341918945312,-1.767288208007812
2023-11-22T21:51:51.727+01:00,13762.64383366667,-12.23423767089844,6.46258544921875,-0.300628662109375
2023-11-22T21:51:51.747+01:00,13762.66377066667,-13.73861694335938,5.11566162109375,3.28009033203125
2023-11-22T21:51:51.767+01:00,13762.68370866667,-15.9747314453125,1.5277099609375,18.45333862304688
2023-11-22T21:51:51.787+01:00,13762.70364566667,-0.6432342529296875,-5.941009521484375,2.338912963867188
2023-11-22T21:51:51.807+01:00,13762.72358366667,-8.289871215820312,4.234786987304688,1.669509887695312
2023-11-22T21:51:51.826+01:00,13762.74352066667,-3.464035034179688,-7.08831787109375,1.207305908203125
2023-11-22T21:51:51.846+01:00,13762.76345866667,-4.809036254882812,-3.971893310546875,0.554290771484375
2023-11-22T21:51:51.866+01:00,13762.78339566667,-3.502838134765625,-3.615936279296875,-0.2693023681640625
2023-11-22T21:51:51.886+01:00,13762.80333366667,-3.334945678710938,-1.68402099609375,-1.46990966796875
2023-11-22T21:51:51.906+01:00,13762.82327066667,-3.065383911132812,-1.715866088867188,-1.902053833007812
2023-11-22T21:51:51.926+01:00,13762.84320866667,-3.502822875976562,-0.784423828125,-2.321151733398438
2023-11-22T21:51:51.946+01:00,13762.86314566667,-3.651657104492188,-0.4615936279296875,-2.884735107421875
2023-11-22T21:51:51.966+01:00,13762.88308366667,-2.87103271484375,-0.9742279052734375,-2.650466918945312
2023-11-22T21:51:51.986+01:00,13762.903021875,-2.544692993164062,-0.4920806884765625,-2.2066650390625
2023-11-22T21:51:52.006+01:00,13762.922959875,-2.184234619140625,-0.4711761474609375,-1.9254150390625
2023-11-22T21:51:52.026+01:00,13762.942896875,-1.89093017578125,-0.7073516845703125,-1.637908935546875
2023-11-22T21:51:52.046+01:00,13762.962834875,-1.48162841796875,-0.6789398193359375,-1.371261596679688
2023-11-22T21:51:52.066+01:00,13762.982771875,-1.074539184570312,-0.7070770263671875,-0.865234375
2023-11-22T21:51:52.086+01:00,13763.002709875,-0.960693359375,-0.261871337890625,-0.5546112060546875
2023-11-22T21:51:52.106+01:00,13763.022646875,-0.8628387451171875,0.02239990234375,-0.221893310546875
2023-11-22T21:51:52.126+01:00,13763.042583875,-0.766815185546875,0.0335845947265625,-0.119842529296875
2023-11-22T21:51:52.145+01:00,13763.062521875,-0.765533447265625,0.0403289794921875,-0.09478759765625
2023-11-22T21:51:52.165+01:00,13763.082458875,-0.825469970703125,0.1154632568359375,-0.1260833740234375
2023-11-22T21:51:52.185+01:00,13763.102396875,-0.872222900390625,0.2460784912109375,-0.1298980712890625
2023-11-22T21:51:52.205+01:00,13763.122333875,-0.9900665283203125,0.46905517578125,-0.12548828125
2023-11-22T21:51:52.225+01:00,13763.142271875,-1.225479125976562,0.716796875,-0.1703948974609375
2023-11-22T21:51:52.245+01:00,13763.162208875,-1.375991821289062,1.03656005859375,-0.148223876953125
2023-11-22T21:51:52.265+01:00,13763.182146875,-1.34747314453125,1.295516967773438,-0.2101287841796875
2023-11-22T21:51:52.285+01:00,13763.202083875,-1.094284057617188,1.402267456054688,-0.1039581298828125
2023-11-22T21:51:52.305+01:00,13763.222021875,-0.912017822265625,0.815460205078125,-0.1686859130859375
2023-11-22T21:51:52.325+01:00,13763.241958875,-0.941741943359375,0.7907562255859375,-0.235931396484375
2023-11-22T21:51:52.345+01:00,13763.261896875,-1.062728881835938,0.8119354248046875,-0.3037109375
2023-11-22T21:51:52.365+01:00,13763.281833875,-1.090072631835938,0.6312713623046875,-0.2018890380859375
2023-11-22T21:51:52.385+01:00,13763.301771875,-1.051742553710938,0.680267333984375,-0.120941162109375
2023-11-22T21:51:52.405+01:00,13763.321708875,-0.981658935546875,0.8365020751953125,-0.092315673828125
2023-11-22T21:51:52.425+01:00,13763.341645875,-0.90850830078125,0.806365966796875,-0.0778656005859375
2023-11-22T21:51:52.445+01:00,13763.361583875,-0.8165435791015625,0.70916748046875,-0.10382080078125
2023-11-22T21:51:52.464+01:00,13763.381520875,-0.7244415283203125,0.638671875,-0.1625823974609375
2023-11-22T21:51:52.484+01:00,13763.401458875,-0.6627044677734375,0.6366729736328125,-0.27435302734375
2023-11-22T21:51:52.504+01:00,13763.421395875,-0.631317138671875,0.6126251220703125,-0.3661956787109375
2023-11-22T21:51:52.524+01:00,13763.441333875,-0.57666015625,0.5037689208984375,-0.433441162109375
2023-11-22T21:51:52.544+01:00,13763.461270875,-0.5157623291015625,0.478912353515625,-0.4097442626953125
2023-11-22T21:51:52.564+01:00,13763.481208875,-0.488311767578125,0.4980010986328125,-0.4494781494140625
2023-11-22T21:51:52.584+01:00,13763.501145875,-0.4960174560546875,0.4539337158203125,-0.4939422607421875
2023-11-22T21:51:52.604+01:00,13763.521083875,-0.5266265869140625,0.471649169921875,-0.5725860595703125
2023-11-22T21:51:52.624+01:00,13763.541020875,-0.569061279296875,0.6155548095703125,-0.60943603515625
2023-11-22T21:51:52.644+01:00,13763.560958875,-0.6870269775390625,0.552490234375,-0.54595947265625
2023-11-22T21:51:52.664+01:00,13763.580895875,-0.8128509521484375,0.4191436767578125,-0.526763916015625
2023-11-22T21:51:52.684+01:00,13763.600833875,-0.9266815185546875,0.5569610595703125,-0.593048095703125
2023-11-22T21:51:52.704+01:00,13763.620770875,-0.9432220458984375,0.6166534423828125,-0.592987060546875
2023-11-22T21:51:52.724+01:00,13763.640707875,-0.8491363525390625,0.61920166015625,-0.6004486083984375
2023-11-22T21:51:52.744+01:00,13763.660645875,-0.785430908203125,0.6608428955078125,-0.57366943359375
2023-11-22T21:51:52.764+01:00,13763.680582875,-0.6940460205078125,0.7967376708984375,-0.611572265625
2023-11-22T21:51:52.783+01:00,13763.700520875,-0.643402099609375,0.8227081298828125,-0.6636810302734375
2023-11-22T21:51:52.803+01:00,13763.720457875,-0.6585235595703125,0.7486724853515625,-0.66485595703125
2023-11-22T21:51:52.823+01:00,13763.740395875,-0.6734771728515625,0.78375244140625,-0.70379638671875
2023-11-22T21:51:52.843+01:00,13763.760332875,-0.6296844482421875,0.7784271240234375,-0.64349365234375
2023-11-22T21:51:52.863+01:00,13763.780270875,-0.5541534423828125,0.75543212890625,-0.623321533203125
2023-11-22T21:51:52.883+01:00,13763.800207875,-0.4968414306640625,0.760223388671875,-0.5733795166015625
2023-11-22T21:51:52.903+01:00,13763.820145875,-0.454620361328125,0.6850433349609375,-0.49456787109375
2023-11-22T21:51:52.923+01:00,13763.840082875,-0.4272308349609375,0.691070556640625,-0.488037109375
2023-11-22T21:51:52.943+01:00,13763.860019875,-0.401702880859375,0.7077484130859375,-0.45123291015625
2023-11-22T21:51:52.963+01:00,13763.879957875,-0.3345489501953125,0.5581207275390625,-0.3686981201171875
2023-11-22T21:51:52.983+01:00,13763.89989441667,-0.2730255126953125,0.57318115234375,-0.3755340576171875
2023-11-22T21:51:53.003+01:00,13763.91983241667,-0.2843780517578125,0.5545654296875,-0.36151123046875
2023-11-22T21:51:53.023+01:00,13763.93976941667,-0.2439422607421875,0.4579010009765625,-0.3146209716796875
2023-11-22T21:51:53.043+01:00,13763.95970741667,-0.18878173828125,0.3971405029296875,-0.270782470703125
2023-11-22T21:51:53.063+01:00,13763.97964441667,-0.2249603271484375,0.5166778564453125,-0.2953033447265625
2023-11-22T21:51:53.083+01:00,13763.99958241667,-0.226348876953125,0.5086517333984375,-0.2934722900390625
2023-11-22T21:51:53.102+01:00,13764.01951941667,-0.2092742919921875,0.5269775390625,-0.2738037109375
2023-11-22T21:51:53.122+01:00,13764.03945741667,-0.2645111083984375,0.6488494873046875,-0.339813232421875
2023-11-22T21:51:53.142+01:00,13764.05939441667,-0.3884735107421875,0.740234375,-0.3836669921875
2023-11-22T21:51:53.162+01:00,13764.07933241667,-0.4618682861328125,0.74114990234375,-0.3897552490234375
2023-11-22T21:51:53.182+01:00,13764.09926941667,-0.5417327880859375,0.8097381591796875,-0.4209442138671875
2023-11-22T21:51:53.202+01:00,13764.11920641667,-0.626190185546875,0.9033966064453125,-0.4463653564453125
2023-11-22T21:51:53.222+01:00,13764.13914441667,-0.6927337646484375,0.92938232421875,-0.4295501708984375
2023-11-22T21:51:53.242+01:00,13764.15908141667,-0.796661376953125,0.966827392578125,-0.4041595458984375
2023-11-22T21:51:53.262+01:00,13764.17901941667,-0.8979949951171875,0.9859466552734375,-0.399810791015625
2023-11-22T21:51:53.282+01:00,13764.19895641667,-0.9393463134765625,0.992034912109375,-0.3856658935546875
2023-11-22T21:51:53.302+01:00,13764.21889441667,-0.919647216796875,0.9769439697265625,-0.30584716796875
2023-11-22T21:51:53.322+01:00,13764.23883141667,-0.9247589111328125,0.95172119140625,-0.25732421875
2023-11-22T21:51:53.342+01:00,13764.25876941667,-0.9770660400390625,0.9075927734375,-0.2361602783203125
2023-11-22T21:51:53.362+01:00,13764.27870641667,-1.051467895507812,0.850830078125,-0.2571563720703125
2023-11-22T21:51:53.382+01:00,13764.29864441667,-1.117630004882812,0.7374725341796875,-0.2355804443359375
2023-11-22T21:51:53.402+01:00,13764.31858141667,-1.050140380859375,0.649566650390625,-0.1703033447265625
2023-11-22T21:51:53.421+01:00,13764.33851941667,-0.9020233154296875,0.602325439453125,-0.129150390625
2023-11-22T21:51:53.441+01:00,13764.35845641667,-0.775482177734375,0.4494781494140625,-0.1231536865234375
2023-11-22T21:51:53.461+01:00,13764.37839341667,-0.6957550048828125,0.365142822265625,-0.119842529296875
2023-11-22T21:51:53.481+01:00,13764.39833141667,-0.70953369140625,0.2710113525390625,-0.1522979736328125
2023-11-22T21:51:53.501+01:00,13764.41826841667,-0.694122314453125,0.2566070556640625,-0.205047607421875
2023-11-22T21:51:53.521+01:00,13764.43820641667,-0.6961212158203125,0.312286376953125,-0.266357421875
2023-11-22T21:51:53.541+01:00,13764.45814341667,-0.732391357421875,0.381988525390625,-0.3090362548828125
2023-11-22T21:51:53.561+01:00,13764.47808141667,-0.7686614990234375,0.4793548583984375,-0.2984771728515625
2023-11-22T21:51:53.581+01:00,13764.49801841667,-0.7679443359375,0.5833587646484375,-0.3227081298828125
2023-11-22T21:51:53.601+01:00,13764.51795641667,-0.7520751953125,0.7247467041015625,-0.3729400634765625
2023-11-22T21:51:53.621+01:00,13764.53789341667,-0.696807861328125,0.8984527587890625,-0.4211273193359375
2023-11-22T21:51:53.641+01:00,13764.55783141667,-0.5822296142578125,0.96856689453125,-0.4680328369140625
2023-11-22T21:51:53.661+01:00,13764.57776841667,-0.436004638671875,1.059707641601562,-0.5478057861328125
2023-11-22T21:51:53.681+01:00,13764.59770541667,-0.3382110595703125,1.062957763671875,-0.6185455322265625
2023-11-22T21:51:53.701+01:00,13764.61764341667,-0.2364349365234375,0.9702606201171875,-0.6461944580078125
2023-11-22T21:51:53.722+01:00,13764.63758041667,-0.166748046875,0.9860687255859375,-0.660430908203125
2023-11-22T21:51:53.741+01:00,13764.65751841667,-0.1202850341796875,0.9663543701171875,-0.6512908935546875
2023-11-22T21:51:53.760+01:00,13764.67745541667,-0.10882568359375,0.8851470947265625,-0.648406982421875
2023-11-22T21:51:53.780+01:00,13764.69739341667,-0.1036529541015625,0.832611083984375,-0.64031982421875
2023-11-22T21:51:53.800+01:00,13764.71733041667,-0.105621337890625,0.8426513671875,-0.6108856201171875
2023-11-22T21:51:53.820+01:00,13764.73726841667,-0.096893310546875,0.8724517822265625,-0.5794525146484375
2023-11-22T21:51:53.840+01:00,13764.75720541667,-0.1121826171875,0.83843994140625,-0.544586181640625
2023-11-22T21:51:53.860+01:00,13764.77714341667,-0.1528167724609375,0.74652099609375,-0.5015716552734375
2023-11-22T21:51:53.880+01:00,13764.79708041667,-0.194549560546875,0.76202392578125,-0.50213623046875
2023-11-22T21:51:53.900+01:00,13764.81701741667,-0.2571563720703125,0.8007965087890625,-0.4908294677734375
2023-11-22T21:51:53.920+01:00,13764.83695541667,-0.323089599609375,0.8173675537109375,-0.5116119384765625
2023-11-22T21:51:53.940+01:00,13764.85689241667,-0.4045867919921875,0.8305511474609375,-0.5076904296875
2023-11-22T21:51:53.960+01:00,13764.87683041667,-0.476898193359375,0.8717041015625,-0.48663330078125
2023-11-22T21:51:53.980+01:00,13764.896767125,-0.572784423828125,0.84906005859375,-0.499481201171875
2023-11-22T21:51:54.000+01:00,13764.916705125,-0.610931396484375,0.867034912109375,-0.4940338134765625
2023-11-22T21:51:54.020+01:00,13764.936642125,-0.62646484375,0.90557861328125,-0.480743408203125
2023-11-22T21:51:54.040+01:00,13764.956580125,-0.6620635986328125,0.9270782470703125,-0.4563140869140625
2023-11-22T21:51:54.059+01:00,13764.976517125,-0.7005615234375,0.9296722412109375,-0.434295654296875
2023-11-22T21:51:54.079+01:00,13764.996454125,-0.7408447265625,0.976593017578125,-0.4409637451171875
2023-11-22T21:51:54.099+01:00,13765.016392125,-0.7440643310546875,0.9005126953125,-0.4316558837890625
2023-11-22T21:51:54.119+01:00,13765.036329125,-0.6936187744140625,0.9271087646484375,-0.4598541259765625
2023-11-22T21:51:54.139+01:00,13765.056267125,-0.6866912841796875,0.954742431640625,-0.3690643310546875
2023-11-22T21:51:54.159+01:00,13765.076204125,-0.71832275390625,0.9639892578125,-0.239166259765625
2023-11-22T21:51:54.179+01:00,13765.096142125,-0.6869659423828125,0.9179534912109375,-0.2176055908203125
2023-11-22T21:51:54.199+01:00,13765.116079125,-0.547698974609375,1.012664794921875,-0.1930389404296875
2023-11-22T21:51:54.219+01:00,13765.136017125,-0.4443206787109375,0.873443603515625,-0.14776611328125
2023-11-22T21:51:54.239+01:00,13765.155954125,-0.2413177490234375,0.74847412109375,-0.0792999267578125
2023-11-22T21:51:54.259+01:00,13765.175892125,-0.03411865234375,0.551116943359375,-0.144500732421875
2023-11-22T21:51:54.279+01:00,13765.195829125,0.1194000244140625,0.3612213134765625,-0.1868743896484375
2023-11-22T21:51:54.299+01:00,13765.215766125,0.231597900390625,0.407623291015625,-0.2821807861328125
2023-11-22T21:51:54.319+01:00,13765.235704125,0.3363494873046875,0.616058349609375,-0.397308349609375
2023-11-22T21:51:54.339+01:00,13765.255641125,0.32000732421875,0.6475372314453125,-0.5588226318359375
2023-11-22T21:51:54.359+01:00,13765.275579125,0.2568206787109375,0.718719482421875,-0.5103759765625
2023-11-22T21:51:54.378+01:00,13765.295516125,0.039886474609375,0.306427001953125,-0.4670562744140625
2023-11-22T21:51:54.398+01:00,13765.315454125,-0.032958984375,0.2690582275390625,-0.196441650390625
2023-11-22T21:51:54.418+01:00,13765.335391125,-0.3437957763671875,0.9859466552734375,-0.2255096435546875
2023-11-22T21:51:54.438+01:00,13765.355329125,-0.30816650390625,1.300338745117188,-0.25250244140625
2023-11-22T21:51:54.458+01:00,13765.375266125,-0.09417724609375,1.054672241210938,-0.3761749267578125
2023-11-22T21:51:54.478+01:00,13765.395203125,0.0445404052734375,1.007431030273438,-0.55853271484375
2023-11-22T21:51:54.498+01:00,13765.415141125,0.0491180419921875,0.7558746337890625,-0.42474365234375
2023-11-22T21:51:54.518+01:00,13765.435078125,0.0433502197265625,0.784393310546875,-0.4078826904296875
2023-11-22T21:51:54.538+01:00,13765.455016125,0.0443115234375,0.9511566162109375,-0.5980987548828125
2023-11-22T21:51:54.558+01:00,13765.474953125,0.033447265625,0.8003692626953125,-0.6990814208984375
2023-11-22T21:51:54.578+01:00,13765.494891125,-0.0157623291015625,0.6306610107421875,-0.5721282958984375
2023-11-22T21:51:54.598+01:00,13765.514828125,-0.087677001953125,0.6277923583984375,-0.4149017333984375
2023-11-22T21:51:54.618+01:00,13765.534766125,-0.0890045166015625,0.742340087890625,-0.195556640625
2023-11-22T21:51:54.638+01:00,13765.554703125,-0.0874786376953125,0.690582275390625,0.0640106201171875
2023-11-22T21:51:54.658+01:00,13765.574641125,-0.07159423828125,0.4218597412109375,0.5827789306640625
2023-11-22T21:51:54.678+01:00,13765.594578125,-0.1172332763671875,0.41961669921875,1.155502319335938
2023-11-22T21:51:54.697+01:00,13765.614515125,-0.1637115478515625,0.3621978759765625,2.008026123046875
2023-11-22T21:51:54.717+01:00,13765.634453125,-0.4497833251953125,0.4002685546875,2.489517211914062
2023-11-22T21:51:54.737+01:00,13765.654390125,-1.043487548828125,0.2674560546875,3.088577270507812
2023-11-22T21:51:54.757+01:00,13765.674328125,-2.994247436523438,-0.5167388916015625,3.70086669921875
2023-11-22T21:51:54.777+01:00,13765.694265125,-3.3917236328125,-0.4569244384765625,3.262863159179688
2023-11-22T21:51:54.797+01:00,13765.714203125,-4.673202514648438,-0.6027069091796875,2.436019897460938
2023-11-22T21:51:54.817+01:00,13765.734140125,-5.7864990234375,-0.1758880615234375,1.134048461914062
2023-11-22T21:51:54.837+01:00,13765.754078125,-7.067764282226562,0.3141326904296875,0.2327728271484375
2023-11-22T21:51:54.857+01:00,13765.774015125,-6.357177734375,1.5535888671875,0.537353515625
2023-11-22T21:51:54.877+01:00,13765.793952125,-5.909500122070312,3.080703735351562,3.9105224609375
2023-11-22T21:51:54.897+01:00,13765.813890125,-6.91094970703125,-0.63372802734375,3.624252319335938
2023-11-22T21:51:54.917+01:00,13765.833827125,-2.59515380859375,-1.416107177734375,2.980392456054688
2023-11-22T21:51:54.937+01:00,13765.853765125,-4.867202758789062,-0.31439208984375,1.928741455078125
2023-11-22T21:51:54.957+01:00,13765.873702125,-3.3115234375,-1.4149169921875,0.4049530029296875
2023-11-22T21:51:54.976+01:00,13765.893640125,-3.7396240234375,-1.090072631835938,-0.21246337890625
2023-11-22T21:51:54.997+01:00,13765.913577125,-3.780670166015625,-0.35858154296875,-1.002487182617188
2023-11-22T21:51:55.016+01:00,13765.933515125,-1.98553466796875,-0.3062744140625,-2.537734985351562
2023-11-22T21:51:55.036+01:00,13765.953452125,-3.040115356445312,-2.406768798828125,-0.3288116455078125
2023-11-22T21:51:55.056+01:00,13765.973389125,-1.00390625,0.0099945068359375,-0.327484130859375
2023-11-22T21:51:55.076+01:00,13765.993327125,-1.1722412109375,-0.2881011962890625,-0.1115570068359375
2023-11-22T21:51:55.096+01:00,13766.013264125,-1.236587524414062,0.1600799560546875,-0.124237060546875
2023-11-22T21:51:55.116+01:00,13766.033202125,-1.0826416015625,0.4145660400390625,-0.2628936767578125
2023-11-22T21:51:55.136+01:00,13766.053139125,-1.10797119140625,0.670257568359375,-0.5208587646484375
2023-11-22T21:51:55.156+01:00,13766.073077125,-0.882171630859375,0.7681427001953125,-0.5071258544921875
2023-11-22T21:51:55.176+01:00,13766.093014125,-0.8961639404296875,0.88238525390625,-0.4319305419921875
2023-11-22T21:51:55.196+01:00,13766.112952125,-0.8030853271484375,1.372421264648438,-0.4493408203125
2023-11-22T21:51:55.216+01:00,13766.132889125,-0.4911956787109375,1.501007080078125,-0.6533966064453125
2023-11-22T21:51:55.236+01:00,13766.152827125,-0.3251800537109375,1.362014770507812,-0.833892822265625
2023-11-22T21:51:55.256+01:00,13766.172764125,-0.2402496337890625,0.762603759765625,-0.714630126953125
2023-11-22T21:51:55.276+01:00,13766.192701125,-0.2694549560546875,0.342193603515625,-0.6488494873046875
2023-11-22T21:51:55.296+01:00,13766.212639125,-0.2452545166015625,0.9838409423828125,-0.8775787353515625
2023-11-22T21:51:55.316+01:00,13766.232576125,-0.11895751953125,1.454971313476562,-0.5973663330078125
2023-11-22T21:51:55.335+01:00,13766.252514125,-0.11785888671875,1.64862060546875,-0.368743896484375
2023-11-22T21:51:55.355+01:00,13766.272451125,-0.18890380859375,1.759170532226562,-0.4686737060546875
2023-11-22T21:51:55.375+01:00,13766.292389125,-0.31268310546875,1.764373779296875,-0.535430908203125
2023-11-22T21:51:55.395+01:00,13766.312326125,-0.4040679931640625,1.707473754882812,-0.5828094482421875
2023-11-22T21:51:55.415+01:00,13766.332264125,-0.3946380615234375,1.601058959960938,-0.58514404296875
2023-11-22T21:51:55.435+01:00,13766.352201125,-0.2763519287109375,1.421218872070312,-0.5335540771484375
2023-11-22T21:51:55.455+01:00,13766.372138125,-0.23516845703125,1.347915649414062,-0.498687744140625
2023-11-22T21:51:55.475+01:00,13766.392076125,-0.2512054443359375,1.174423217773438,-0.47503662109375
2023-11-22T21:51:55.495+01:00,13766.412013125,-0.235260009765625,0.9631805419921875,-0.449127197265625
2023-11-22T21:51:55.515+01:00,13766.431951125,-0.21856689453125,0.7679901123046875,-0.4263458251953125
2023-11-22T21:51:55.535+01:00,13766.451888125,-0.1701812744140625,0.6731414794921875,-0.38629150390625
2023-11-22T21:51:55.555+01:00,13766.471826125,-0.1570587158203125,0.5573883056640625,-0.3459014892578125
2023-11-22T21:51:55.575+01:00,13766.491763125,-0.137847900390625,0.4722442626953125,-0.3312530517578125
2023-11-22T21:51:55.595+01:00,13766.511700125,-0.14654541015625,0.48223876953125,-0.307861328125
2023-11-22T21:51:55.615+01:00,13766.531638125,-0.1658172607421875,0.5473480224609375,-0.331268310546875
2023-11-22T21:51:55.635+01:00,13766.551575125,-0.193328857421875,0.5868682861328125,-0.336151123046875
2023-11-22T21:51:55.655+01:00,13766.571513125,-0.2164154052734375,0.5872955322265625,-0.3416748046875
2023-11-22T21:51:55.674+01:00,13766.591450125,-0.2700347900390625,0.6673126220703125,-0.3785552978515625
2023-11-22T21:51:55.694+01:00,13766.611388125,-0.351104736328125,0.722625732421875,-0.397613525390625
2023-11-22T21:51:55.714+01:00,13766.631325125,-0.4567413330078125,0.8919677734375,-0.44573974609375
2023-11-22T21:51:55.734+01:00,13766.651263125,-0.6135711669921875,0.9831085205078125,-0.4646148681640625
2023-11-22T21:51:55.754+01:00,13766.671200125,-0.64337158203125,0.913970947265625,-0.4454193115234375
2023-11-22T21:51:55.774+01:00,13766.691137125,-0.6422882080078125,0.9148712158203125,-0.4063873291015625
2023-11-22T21:51:55.794+01:00,13766.711075125,-0.7019805908203125,0.8939666748046875,-0.3890228271484375
2023-11-22T21:51:55.814+01:00,13766.731012125,-0.7853546142578125,0.810089111328125,-0.3441314697265625
2023-11-22T21:51:55.834+01:00,13766.750950125,-0.821807861328125,0.7493133544921875,-0.3197479248046875
2023-11-22T21:51:55.854+01:00,13766.770887125,-0.8125457763671875,0.6898193359375,-0.288055419921875
2023-11-22T21:51:55.874+01:00,13766.790825125,-0.754364013671875,0.6014251708984375,-0.2431182861328125
2023-11-22T21:51:55.894+01:00,13766.810762125,-0.6920318603515625,0.5954437255859375,-0.2082977294921875
2023-11-22T21:51:55.914+01:00,13766.830700125,-0.6427154541015625,0.55963134765625,-0.1693267822265625
2023-11-22T21:51:55.933+01:00,13766.850637125,-0.5791778564453125,0.5230712890625,-0.145660400390625
2023-11-22T21:51:55.954+01:00,13766.870574125,-0.5307769775390625,0.5035552978515625,-0.1187591552734375
2023-11-22T21:51:55.973+01:00,13766.890512375,-0.5088958740234375,0.451934814453125,-0.100799560546875
2023-11-22T21:51:55.993+01:00,13766.910449375,-0.494110107421875,0.422271728515625,-0.0998687744140625
2023-11-22T21:51:56.013+01:00,13766.930387375,-0.504852294921875,0.4433746337890625,-0.1180267333984375
2023-11-22T21:51:56.033+01:00,13766.950324375,-0.550323486328125,0.47845458984375,-0.1278533935546875
2023-11-22T21:51:56.053+01:00,13766.970262375,-0.605224609375,0.4721832275390625,-0.107879638671875
2023-11-22T21:51:56.073+01:00,13766.990199375,-0.6103363037109375,0.422943115234375,-0.0759124755859375
2023-11-22T21:51:56.093+01:00,13767.010136375,-0.6527557373046875,0.3372039794921875,-0.0444183349609375
2023-11-22T21:51:56.113+01:00,13767.030074375,-0.719635009765625,0.3583984375,-0.0756683349609375
2023-11-22T21:51:56.133+01:00,13767.050011375,-0.802947998046875,0.443145751953125,-0.0708770751953125
2023-11-22T21:51:56.153+01:00,13767.069949375,-0.8638916015625,0.4356536865234375,-0.03582763671875
2023-11-22T21:51:56.173+01:00,13767.089886375,-0.938079833984375,0.4108734130859375,0.011871337890625
2023-11-22T21:51:56.193+01:00,13767.109824375,-1.01177978515625,0.4069061279296875,0.0519256591796875
2023-11-22T21:51:56.213+01:00,13767.129761375,-1.02459716796875,0.417327880859375,0.091461181640625
2023-11-22T21:51:56.233+01:00,13767.149699375,-1.061203002929688,0.42742919921875,0.0604248046875
2023-11-22T21:51:56.253+01:00,13767.169636375,-1.127212524414062,0.4418487548828125,0.1605377197265625
2023-11-22T21:51:56.273+01:00,13767.189573375,-1.093978881835938,0.3927764892578125,0.1549835205078125
2023-11-22T21:51:56.292+01:00,13767.209511375,-1.115463256835938,0.3998870849609375,0.0530548095703125
2023-11-22T21:51:56.312+01:00,13767.229448375,-1.113250732421875,0.365478515625,0.0576019287109375
2023-11-22T21:51:56.332+01:00,13767.249386375,-1.160690307617188,0.164581298828125,0.154815673828125
2023-11-22T21:51:56.352+01:00,13767.269323375,-1.232223510742188,0.0177764892578125,0.16632080078125
2023-11-22T21:51:56.372+01:00,13767.289261375,-1.253280639648438,-0.1134033203125,-0.0300140380859375
2023-11-22T21:51:56.392+01:00,13767.309198375,-1.256362915039062,-0.14111328125,-0.1894989013671875
2023-11-22T21:51:56.412+01:00,13767.329135375,-1.326675415039062,-0.2040863037109375,-0.2822723388671875
2023-11-22T21:51:56.432+01:00,13767.349073375,-1.287063598632812,-0.3712005615234375,-0.358642578125
2023-11-22T21:51:56.452+01:00,13767.369010375,-1.249771118164062,-0.27520751953125,-0.32086181640625
2023-11-22T21:51:56.472+01:00,13767.388948375,-1.21038818359375,-0.4095458984375,-0.3298187255859375
2023-11-22T21:51:56.492+01:00,13767.408885375,-1.187088012695312,-0.4606781005859375,-0.299285888671875
2023-11-22T21:51:56.512+01:00,13767.428823375,-1.2633056640625,-0.3920440673828125,-0.297760009765625
2023-11-22T21:51:56.532+01:00,13767.448760375,-1.2115478515625,-0.4589385986328125,-0.2055816650390625
2023-11-22T21:51:56.552+01:00,13767.468697375,-1.2388916015625,-0.3783721923828125,-0.238555908203125
2023-11-22T21:51:56.572+01:00,13767.488635375,-1.352188110351562,-0.2025909423828125,-0.2754669189453125
2023-11-22T21:51:56.591+01:00,13767.508572375,-1.350540161132812,-0.29046630859375,-0.3690948486328125
2023-11-22T21:51:56.611+01:00,13767.528510375,-1.244598388671875,-0.273040771484375,-0.4454803466796875
2023-11-22T21:51:56.631+01:00,13767.548447375,-1.17999267578125,-0.191802978515625,-0.504150390625
2023-11-22T21:51:56.651+01:00,13767.568385375,-1.053878784179688,-0.1385040283203125,-0.5395355224609375
2023-11-22T21:51:56.671+01:00,13767.588322375,-0.9750213623046875,-0.091064453125,-0.4531097412109375
2023-11-22T21:51:56.691+01:00,13767.608259375,-0.838592529296875,-0.05804443359375,-0.3071746826171875
2023-11-22T21:51:56.711+01:00,13767.628197375,-0.709259033203125,-0.0008392333984375,-0.263336181640625
2023-11-22T21:51:56.731+01:00,13767.648134375,-0.6060333251953125,-0.002899169921875,-0.141143798828125
2023-11-22T21:51:56.751+01:00,13767.668072375,-0.53045654296875,0.1710205078125,-0.03607177734375
2023-11-22T21:51:56.771+01:00,13767.688009375,-0.463470458984375,0.29150390625,0.1644439697265625
2023-11-22T21:51:56.791+01:00,13767.707947375,-0.362762451171875,0.3939056396484375,0.353851318359375
2023-11-22T21:51:56.811+01:00,13767.727884375,-0.271728515625,0.43536376953125,0.5526580810546875
2023-11-22T21:51:56.831+01:00,13767.747821375,-0.213531494140625,0.48236083984375,0.801605224609375
2023-11-22T21:51:56.851+01:00,13767.767759375,-0.173095703125,0.7072906494140625,1.087799072265625
2023-11-22T21:51:56.871+01:00,13767.787696375,-0.2462310791015625,0.734588623046875,1.257049560546875
2023-11-22T21:51:56.891+01:00,13767.807634375,-0.4569854736328125,0.8607177734375,1.663284301757812
2023-11-22T21:51:56.910+01:00,13767.827571375,-0.8183746337890625,0.840087890625,2.23443603515625
2023-11-22T21:51:56.930+01:00,13767.847509375,-1.467453002929688,0.66162109375,2.64483642578125
2023-11-22T21:51:56.950+01:00,13767.867446375,-2.70758056640625,0.5276336669921875,2.517669677734375
2023-11-22T21:51:56.970+01:00,13767.887383375,-3.5948486328125,0.57379150390625,2.569259643554688
2023-11-22T21:51:56.990+01:00,13767.90732166667,-5.076278686523438,0.5722198486328125,1.860275268554688
2023-11-22T21:51:57.010+01:00,13767.92725866667,-5.73248291015625,1.570358276367188,0.2432708740234375
2023-11-22T21:51:57.030+01:00,13767.94719666667,-5.49920654296875,1.487503051757812,-0.9818267822265625
2023-11-22T21:51:57.050+01:00,13767.96713366667,-3.233718872070312,0.3611297607421875,-1.03570556640625
2023-11-22T21:51:57.070+01:00,13767.98707166667,-1.727828979492188,0.84173583984375,5.169052124023438
2023-11-22T21:51:57.090+01:00,13768.00700866667,-2.768020629882812,3.755661010742188,3.154434204101562
2023-11-22T21:51:57.110+01:00,13768.02694566667,-0.4792938232421875,-1.661712646484375,2.097503662109375
2023-11-22T21:51:57.130+01:00,13768.04688366667,-2.832717895507812,0.42401123046875,3.772018432617188
2023-11-22T21:51:57.150+01:00,13768.06682066667,-0.642608642578125,2.144699096679688,0.6123809814453125
2023-11-22T21:51:57.170+01:00,13768.08675866667,-2.431289672851562,-2.409576416015625,1.622802734375
2023-11-22T21:51:57.190+01:00,13768.10669566667,-1.048904418945312,-1.736785888671875,0.3466339111328125
2023-11-22T21:51:57.210+01:00,13768.12663366667,-1.36810302734375,-1.768417358398438,0.236053466796875
2023-11-22T21:51:57.229+01:00,13768.14657066667,-1.1636962890625,-1.324234008789062,0.0780792236328125
2023-11-22T21:51:57.249+01:00,13768.16650766667,-0.8783721923828125,-0.9568634033203125,0.0332794189453125
2023-11-22T21:51:57.269+01:00,13768.18644566667,-0.689788818359375,-0.586395263671875,-0.01312255859375
2023-11-22T21:51:57.289+01:00,13768.20638266667,-0.676239013671875,-0.459075927734375,-0.0958099365234375
2023-11-22T21:51:57.309+01:00,13768.22632066667,-0.800506591796875,-0.332061767578125,-0.157684326171875
2023-11-22T21:51:57.329+01:00,13768.24625766667,-0.8952789306640625,-0.1080322265625,-0.2617950439453125
2023-11-22T21:51:57.349+01:00,13768.26619566667,-1.01312255859375,-0.0657806396484375,-0.364044189453125
2023-11-22T21:51:57.369+01:00,13768.28613266667,-1.0189208984375,-0.06268310546875,-0.5028228759765625
2023-11-22T21:51:57.389+01:00,13768.30606966667,-0.9329833984375,0.1912994384765625,-0.558349609375
2023-11-22T21:51:57.409+01:00,13768.32600766667,-1.107452392578125,0.574127197265625,-0.6632537841796875
2023-11-22T21:51:57.429+01:00,13768.34594466667,-1.334381103515625,1.190155029296875,-0.69793701171875
2023-11-22T21:51:57.449+01:00,13768.36588266667,-1.354339599609375,1.896484375,-0.5924835205078125
2023-11-22T21:51:57.469+01:00,13768.38581966667,-1.156784057617188,2.5882568359375,-0.4703369140625
2023-11-22T21:51:57.489+01:00,13768.40575766667,-0.8351287841796875,2.5941162109375,-0.47064208984375
2023-11-22T21:51:57.509+01:00,13768.42569466667,-0.676544189453125,2.11724853515625,-0.5049285888671875
2023-11-22T21:51:57.529+01:00,13768.44563166667,-0.4624176025390625,1.689422607421875,-0.4628753662109375
2023-11-22T21:51:57.549+01:00,13768.46556966667,-0.2677459716796875,1.5057373046875,-0.43060302734375
2023-11-22T21:51:57.568+01:00,13768.48550666667,-0.153076171875,1.361846923828125,-0.3767852783203125
2023-11-22T21:51:57.588+01:00,13768.50544466667,-0.1785888671875,1.391693115234375,-0.2639617919921875
2023-11-22T21:51:57.608+01:00,13768.52538166667,-0.14752197265625,1.398406982421875,-0.1307830810546875
2023-11-22T21:51:57.628+01:00,13768.54531866667,-0.079376220703125,1.2054443359375,-0.1022186279296875
2023-11-22T21:51:57.648+01:00,13768.56525666667,-0.02178955078125,1.071487426757812,-0.1209716796875
2023-11-22T21:51:57.668+01:00,13768.58519366667,-0.0708160400390625,1.059677124023438,-0.13580322265625
2023-11-22T21:51:57.688+01:00,13768.60513166667,-0.0609130859375,1.024063110351562,-0.082427978515625
2023-11-22T21:51:57.708+01:00,13768.62506866667,-0.06414794921875,0.8865509033203125,-0.080963134765625
2023-11-22T21:51:57.728+01:00,13768.64500666667,-0.0953216552734375,0.9165191650390625,-0.1441192626953125
2023-11-22T21:51:57.748+01:00,13768.66494366667,-0.135894775390625,0.896697998046875,-0.211334228515625
2023-11-22T21:51:57.768+01:00,13768.68488066667,-0.20672607421875,0.890960693359375,-0.2168426513671875
2023-11-22T21:51:57.788+01:00,13768.70481866667,-0.242950439453125,0.880615234375,-0.2559814453125
2023-11-22T21:51:57.808+01:00,13768.72475566667,-0.2835235595703125,0.8227081298828125,-0.2311248779296875
2023-11-22T21:51:57.828+01:00,13768.74469366667,-0.3343963623046875,0.8470001220703125,-0.2131195068359375
2023-11-22T21:51:57.848+01:00,13768.76463066667,-0.379791259765625,0.878143310546875,-0.225341796875
2023-11-22T21:51:57.868+01:00,13768.78456766667,-0.3966522216796875,0.9771728515625,-0.249786376953125
2023-11-22T21:51:57.887+01:00,13768.80450566667,-0.3828125,1.092910766601562,-0.294464111328125
2023-11-22T21:51:57.907+01:00,13768.82444266667,-0.354400634765625,1.148162841796875,-0.2860565185546875
2023-11-22T21:51:57.927+01:00,13768.84438066667,-0.297515869140625,0.9850921630859375,-0.25885009765625
2023-11-22T21:51:57.947+01:00,13768.86431766667,-0.190582275390625,0.79534912109375,-0.315185546875
2023-11-22T21:51:57.967+01:00,13768.88425566667,-0.03887939453125,0.890228271484375,-0.46051025390625
2023-11-22T21:51:57.987+01:00,13768.904192375,-0.0055999755859375,0.9452056884765625,-0.5216064453125
2023-11-22T21:51:58.007+01:00,13768.924129375,0.0308380126953125,1.024322509765625,-0.5984344482421875
2023-11-22T21:51:58.027+01:00,13768.944067375,-0.027679443359375,1.059432983398438,-0.6675262451171875
2023-11-22T21:51:58.047+01:00,13768.964004375,0.0009918212890625,1.001708984375,-0.6691131591796875
2023-11-22T21:51:58.067+01:00,13768.983942375,-0.0814056396484375,1.09051513671875,-0.7126617431640625
2023-11-22T21:51:58.087+01:00,13769.003879375,-0.14111328125,1.140304565429688,-0.73468017578125
2023-11-22T21:51:58.107+01:00,13769.023817375,-0.20928955078125,1.117828369140625,-0.765625
2023-11-22T21:51:58.127+01:00,13769.043754375,-0.2935333251953125,1.037567138671875,-0.84918212890625
2023-11-22T21:51:58.147+01:00,13769.063691375,-0.3511962890625,1.035079956054688,-0.877288818359375
2023-11-22T21:51:58.167+01:00,13769.083629375,-0.3138885498046875,0.914337158203125,-0.799072265625
2023-11-22T21:51:58.187+01:00,13769.103566375,-0.2357330322265625,0.7190093994140625,-0.7186279296875
2023-11-22T21:51:58.206+01:00,13769.123504375,-0.1965484619140625,0.609130859375,-0.6227874755859375
2023-11-22T21:51:58.226+01:00,13769.143441375,-0.14794921875,0.43609619140625,-0.525177001953125
2023-11-22T21:51:58.246+01:00,13769.163378375,-0.0992431640625,0.4127044677734375,-0.470306396484375
2023-11-22T21:51:58.266+01:00,13769.183316375,-0.0724334716796875,0.3524322509765625,-0.4320220947265625
2023-11-22T21:51:58.286+01:00,13769.203253375,-0.0345916748046875,0.3187103271484375,-0.3476715087890625
2023-11-22T21:51:58.306+01:00,13769.223191375,-0.030975341796875,0.3012237548828125,-0.2886810302734375
2023-11-22T21:51:58.326+01:00,13769.243128375,-0.0463104248046875,0.311126708984375,-0.2896728515625
2023-11-22T21:51:58.346+01:00,13769.263066375,-0.0746307373046875,0.421966552734375,-0.2958221435546875
2023-11-22T21:51:58.366+01:00,13769.283003375,-0.124298095703125,0.6047515869140625,-0.3079071044921875
2023-11-22T21:51:58.386+01:00,13769.302940375,-0.210784912109375,0.7089691162109375,-0.3701324462890625
2023-11-22T21:51:58.406+01:00,13769.322878375,-0.3138275146484375,0.790771484375,-0.393951416015625
2023-11-22T21:51:58.426+01:00,13769.342815375,-0.341644287109375,0.770965576171875,-0.436492919921875
2023-11-22T21:51:58.446+01:00,13769.362753375,-0.3313751220703125,0.76763916015625,-0.502349853515625
2023-11-22T21:51:58.466+01:00,13769.382690375,-0.34686279296875,0.794952392578125,-0.5501708984375
2023-11-22T21:51:58.486+01:00,13769.402627375,-0.3385772705078125,0.8754119873046875,-0.56072998046875
2023-11-22T21:51:58.506+01:00,13769.422565375,-0.3562469482421875,0.8858642578125,-0.60498046875
2023-11-22T21:51:58.525+01:00,13769.442502375,-0.4102935791015625,0.969024658203125,-0.6470489501953125
2023-11-22T21:51:58.545+01:00,13769.462440375,-0.448516845703125,1.177093505859375,-0.729034423828125
2023-11-22T21:51:58.565+01:00,13769.482377375,-0.4471893310546875,1.426712036132812,-0.84326171875
2023-11-22T21:51:58.585+01:00,13769.502314375,-0.403594970703125,1.428207397460938,-0.9777679443359375
2023-11-22T21:51:58.605+01:00,13769.522252375,-0.3393096923828125,1.32391357421875,-1.018112182617188
2023-11-22T21:51:58.625+01:00,13769.542189375,-0.1309814453125,1.149581909179688,-1.058624267578125
2023-11-22T21:51:58.645+01:00,13769.562127375,0.0874481201171875,1.093902587890625,-1.104598999023438
2023-11-22T21:51:58.665+01:00,13769.582064375,0.0913238525390625,0.8277130126953125,-1.079071044921875
2023-11-22T21:51:58.685+01:00,13769.602002375,0.1674346923828125,0.5758056640625,-0.85638427734375
2023-11-22T21:51:58.705+01:00,13769.621939375,0.269561767578125,0.2525482177734375,-0.6158294677734375
2023-11-22T21:51:58.725+01:00,13769.641876375,0.247344970703125,0.328948974609375,-0.726959228515625
2023-11-22T21:51:58.745+01:00,13769.661814375,0.247589111328125,0.4723358154296875,-0.853973388671875
2023-11-22T21:51:58.765+01:00,13769.681751375,0.245697021484375,0.3376007080078125,-0.633270263671875
2023-11-22T21:51:58.785+01:00,13769.701689375,0.251983642578125,0.2362213134765625,-0.47882080078125
2023-11-22T21:51:58.805+01:00,13769.721626375,0.2953338623046875,0.366363525390625,-0.4154052734375
2023-11-22T21:51:58.825+01:00,13769.741563375,0.207305908203125,0.5872802734375,-0.544677734375
2023-11-22T21:51:58.844+01:00,13769.761501375,0.157135009765625,0.893798828125,-0.5310211181640625
2023-11-22T21:51:58.864+01:00,13769.781438375,0.1334075927734375,0.8729248046875,-0.5097198486328125
2023-11-22T21:51:58.884+01:00,13769.801376375,0.16998291015625,0.81829833984375,-0.56488037109375
2023-11-22T21:51:58.904+01:00,13769.821313375,0.18768310546875,0.8479766845703125,-0.6544342041015625
2023-11-22T21:51:58.924+01:00,13769.841251375,0.1775360107421875,0.86541748046875,-0.690460205078125
2023-11-22T21:51:58.944+01:00,13769.861188375,0.268798828125,0.8094024658203125,-0.731048583984375
2023-11-22T21:51:58.964+01:00,13769.881125375,0.3538970947265625,0.7330169677734375,-0.8054962158203125
2023-11-22T21:51:58.984+01:00,13769.9010635,0.4083251953125,0.6721343994140625,-0.9711151123046875
2023-11-22T21:51:59.004+01:00,13769.9210005,0.5479888916015625,0.6732635498046875,-1.0498046875
2023-11-22T21:51:59.024+01:00,13769.9409385,0.587921142578125,0.6372833251953125,-1.128402709960938
2023-11-22T21:51:59.044+01:00,13769.9608755,0.5646209716796875,0.5434112548828125,-1.17803955078125
2023-11-22T21:51:59.064+01:00,13769.9808125,0.502105712890625,0.516754150390625,-1.151336669921875
2023-11-22T21:51:59.084+01:00,13770.0007505,0.5535430908203125,0.428375244140625,-1.168136596679688
2023-11-22T21:51:59.104+01:00,13770.0206875,0.562286376953125,0.4807586669921875,-1.101699829101562
2023-11-22T21:51:59.124+01:00,13770.0406255,0.479705810546875,0.469696044921875,-1.055450439453125
2023-11-22T21:51:59.144+01:00,13770.0605625,0.4029083251953125,0.44195556640625,-0.9817657470703125
2023-11-22T21:51:59.163+01:00,13770.0804995,0.3492279052734375,0.337066650390625,-0.8672332763671875
2023-11-22T21:51:59.183+01:00,13770.1004375,0.2877044677734375,0.2270660400390625,-0.778961181640625
2023-11-22T21:51:59.203+01:00,13770.1203745,0.286590576171875,0.127655029296875,-0.7520294189453125
2023-11-22T21:51:59.223+01:00,13770.1403125,0.2737274169921875,0.1541290283203125,-0.7136993408203125
2023-11-22T21:51:59.243+01:00,13770.1602495,0.248443603515625,0.1821746826171875,-0.6493682861328125
2023-11-22T21:51:59.263+01:00,13770.1801865,0.2309417724609375,0.1764984130859375,-0.5373992919921875
2023-11-22T21:51:59.283+01:00,13770.2001245,0.198577880859375,0.21807861328125,-0.463287353515625
2023-11-22T21:51:59.303+01:00,13770.2200615,0.218170166015625,0.238128662109375,-0.4868011474609375
2023-11-22T21:51:59.323+01:00,13770.2399995,0.2460174560546875,0.34246826171875,-0.4419097900390625
2023-11-22T21:51:59.343+01:00,13770.2599365,0.2874755859375,0.334686279296875,-0.4294586181640625
2023-11-22T21:51:59.363+01:00,13770.2798735,0.3366546630859375,0.4406585693359375,-0.4596099853515625
2023-11-22T21:51:59.383+01:00,13770.2998115,0.33392333984375,0.5952911376953125,-0.6696929931640625
2023-11-22T21:51:59.403+01:00,13770.3197485,0.4127349853515625,0.641265869140625,-0.787445068359375
2023-11-22T21:51:59.423+01:00,13770.3396865,0.5722808837890625,0.6094818115234375,-0.8604583740234375
2023-11-22T21:51:59.443+01:00,13770.3596235,0.7248077392578125,0.5851287841796875,-0.93634033203125
2023-11-22T21:51:59.463+01:00,13770.3795605,0.8899078369140625,0.557373046875,-0.956085205078125
2023-11-22T21:51:59.482+01:00,13770.3994985,0.9961395263671875,0.470611572265625,-0.9080657958984375
2023-11-22T21:51:59.502+01:00,13770.4194355,1.009384155273438,0.3181304931640625,-0.830718994140625
2023-11-22T21:51:59.522+01:00,13770.4393735,0.9755096435546875,0.2845916748046875,-0.754241943359375
2023-11-22T21:51:59.542+01:00,13770.4593105,0.9768524169921875,0.3173828125,-0.7179412841796875
2023-11-22T21:51:59.562+01:00,13770.4792485,0.9610443115234375,0.373199462890625,-0.64605712890625
2023-11-22T21:51:59.582+01:00,13770.4991855,0.9498291015625,0.343231201171875,-0.580596923828125
2023-11-22T21:51:59.602+01:00,13770.5191225,0.898712158203125,0.3873291015625,-0.5276947021484375
2023-11-22T21:51:59.622+01:00,13770.5390605,0.888702392578125,0.3964385986328125,-0.59552001953125
2023-11-22T21:51:59.642+01:00,13770.5589975,0.91796875,0.4893951416015625,-0.471282958984375
2023-11-22T21:51:59.662+01:00,13770.5789355,1.104171752929688,0.360931396484375,-0.32867431640625
2023-11-22T21:51:59.682+01:00,13770.5988725,1.412872314453125,0.2564697265625,0.032867431640625
2023-11-22T21:51:59.702+01:00,13770.6188095,1.667984008789062,-0.0150604248046875,0.594085693359375
2023-11-22T21:51:59.722+01:00,13770.6387475,1.795120239257812,-0.32012939453125,1.621475219726562
2023-11-22T21:51:59.742+01:00,13770.6586845,1.758865356445312,-0.4237823486328125,3.111740112304688
2023-11-22T21:51:59.762+01:00,13770.6786225,2.061355590820312,-0.3536834716796875,4.90838623046875
2023-11-22T21:51:59.781+01:00,13770.6985595,2.263153076171875,-0.425628662109375,6.721450805664062
2023-11-22T21:51:59.801+01:00,13770.7184965,1.331329345703125,-0.6903839111328125,8.795425415039062
2023-11-22T21:51:59.821+01:00,13770.7384345,-3.002151489257812,-0.191070556640625,9.5357666015625
2023-11-22T21:51:59.841+01:00,13770.7583715,-6.079132080078125,3.080703735351562,7.370559692382812
2023-11-22T21:51:59.861+01:00,13770.7783095,-10.63568115234375,5.198760986328125,2.534561157226562
2023-11-22T21:51:59.881+01:00,13770.7982465,-12.92042541503906,7.423233032226562,-1.314865112304688
2023-11-22T21:51:59.901+01:00,13770.8181835,-17.82437133789062,5.996978759765625,-1.9248046875
2023-11-22T21:51:59.921+01:00,13770.8381215,-10.20834350585938,13.98420715332031,11.13565063476562
2023-11-22T21:51:59.941+01:00,13770.8580585,-12.0137939453125,-9.380615234375,10.96566772460938
2023-11-22T21:51:59.961+01:00,13770.8779965,-3.14520263671875,2.859390258789062,4.182418823242188
2023-11-22T21:51:59.981+01:00,13770.89793304167,-8.9630126953125,-1.739227294921875,0.7553863525390625
2023-11-22T21:52:00.001+01:00,13770.91787004167,-3.118316650390625,-5.367019653320312,0.03912353515625
2023-11-22T21:52:00.021+01:00,13770.93780804167,-5.311386108398438,-2.33197021484375,-0.844696044921875
2023-11-22T21:52:00.041+01:00,13770.95774504167,-4.07623291015625,-1.177413940429688,-1.239273071289062
2023-11-22T21:52:00.061+01:00,13770.97768304167,-4.010726928710938,-0.6362762451171875,-1.969024658203125
2023-11-22T21:52:00.081+01:00,13770.99762004167,-4.246307373046875,-0.777862548828125,-2.697784423828125
2023-11-22T21:52:00.101+01:00,13771.01755704167,-3.9189453125,-1.064407348632812,-3.082351684570312
2023-11-22T21:52:00.120+01:00,13771.03749504167,-3.581298828125,-1.082427978515625,-2.729217529296875
2023-11-22T21:52:00.140+01:00,13771.05743204167,-3.06121826171875,-0.898529052734375,-2.307937622070312
2023-11-22T21:52:00.160+01:00,13771.07737004167,-2.672622680664062,-0.4771575927734375,-2.04217529296875
2023-11-22T21:52:00.180+01:00,13771.09730704167,-2.2073974609375,-0.263641357421875,-1.872116088867188
2023-11-22T21:52:00.200+01:00,13771.11724404167,-1.741363525390625,-0.1441650390625,-1.92633056640625
2023-11-22T21:52:00.220+01:00,13771.13718204167,-1.365966796875,0.216033935546875,-1.475936889648438
2023-11-22T21:52:00.240+01:00,13771.15711904167,-1.078643798828125,0.704193115234375,-1.076705932617188
2023-11-22T21:52:00.260+01:00,13771.17705704167,-0.881500244140625,0.88250732421875,-0.909149169921875
2023-11-22T21:52:00.280+01:00,13771.19699404167,-0.704254150390625,0.864166259765625,-0.741943359375
2023-11-22T21:52:00.300+01:00,13771.21693104167,-0.543060302734375,0.855865478515625,-0.6280670166015625
2023-11-22T21:52:00.320+01:00,13771.23686904167,-0.472198486328125,0.948577880859375,-0.49652099609375
2023-11-22T21:52:00.340+01:00,13771.25680604167,-0.4480743408203125,0.8361358642578125,-0.4585723876953125
2023-11-22T21:52:00.360+01:00,13771.27674404167,-0.3971099853515625,0.6670989990234375,-0.4491729736328125
2023-11-22T21:52:00.380+01:00,13771.29668104167,-0.38409423828125,0.7235260009765625,-0.4170989990234375
2023-11-22T21:52:00.400+01:00,13771.31661804167,-0.414886474609375,0.623016357421875,-0.4567108154296875
2023-11-22T21:52:00.420+01:00,13771.33655604167,-0.41680908203125,0.6772308349609375,-0.3908843994140625
2023-11-22T21:52:00.439+01:00,13771.35649304167,-0.4842529296875,0.7278594970703125,-0.442108154296875
2023-11-22T21:52:00.459+01:00,13771.37643104167,-0.56573486328125,0.7010955810546875,-0.472412109375
2023-11-22T21:52:00.479+01:00,13771.39636804167,-0.579559326171875,0.8137054443359375,-0.448211669921875
2023-11-22T21:52:00.499+01:00,13771.41630504167,-0.6137237548828125,0.760772705078125,-0.4302825927734375
2023-11-22T21:52:00.519+01:00,13771.43624304167,-0.64093017578125,0.8064727783203125,-0.4871673583984375
2023-11-22T21:52:00.539+01:00,13771.45618004167,-0.64666748046875,0.91412353515625,-0.488189697265625
2023-11-22T21:52:00.559+01:00,13771.47611804167,-0.645782470703125,0.9404296875,-0.5242462158203125
2023-11-22T21:52:00.579+01:00,13771.49605504167,-0.6166534423828125,0.8155517578125,-0.4936676025390625
2023-11-22T21:52:00.599+01:00,13771.51599204167,-0.537078857421875,0.8879241943359375,-0.4933624267578125
2023-11-22T21:52:00.619+01:00,13771.53593004167,-0.4838714599609375,0.9779510498046875,-0.5244293212890625
2023-11-22T21:52:00.639+01:00,13771.55586704167,-0.49346923828125,0.96136474609375,-0.595733642578125
2023-11-22T21:52:00.659+01:00,13771.57580504167,-0.486358642578125,0.9377593994140625,-0.5374908447265625
2023-11-22T21:52:00.679+01:00,13771.59574204167,-0.4556884765625,0.7057647705078125,-0.415771484375
2023-11-22T21:52:00.699+01:00,13771.61567904167,-0.3526763916015625,0.6674957275390625,-0.2920684814453125
2023-11-22T21:52:00.719+01:00,13771.63561704167,-0.3318328857421875,0.6867218017578125,-0.29046630859375
2023-11-22T21:52:00.739+01:00,13771.65555404167,-0.2806396484375,0.8567047119140625,-0.2046051025390625
2023-11-22T21:52:00.758+01:00,13771.67549204167,-0.1677703857421875,0.6177520751953125,-0.243896484375
2023-11-22T21:52:00.778+01:00,13771.69542904167,-0.0438385009765625,0.6171112060546875,-0.4162750244140625
2023-11-22T21:52:00.798+01:00,13771.71536604167,0.0030059814453125,0.7879180908203125,-0.65130615234375
2023-11-22T21:52:00.818+01:00,13771.73530404167,0.0616607666015625,0.543304443359375,-0.3560333251953125
2023-11-22T21:52:00.838+01:00,13771.75524104167,0.1414031982421875,0.5063934326171875,-0.323944091796875
2023-11-22T21:52:00.858+01:00,13771.77517904167,0.139312744140625,0.8455963134765625,-0.380462646484375
2023-11-22T21:52:00.878+01:00,13771.79511604167,0.1357879638671875,0.8043975830078125,-0.3659210205078125
2023-11-22T21:52:00.898+01:00,13771.81505304167,0.1270294189453125,0.7792816162109375,-0.35687255859375
2023-11-22T21:52:00.918+01:00,13771.83499104167,0.0738067626953125,0.6403045654296875,-0.4261474609375
2023-11-22T21:52:00.938+01:00,13771.85492804167,0.0616455078125,0.77490234375,-0.436004638671875
2023-11-22T21:52:00.958+01:00,13771.87486604167,0.0981292724609375,0.8664093017578125,-0.4465789794921875
2023-11-22T21:52:00.981+01:00,13771.894803375,0.0821380615234375,0.72149658203125,-0.4981689453125
2023-11-22T21:52:00.998+01:00,13771.914740375,0.0756072998046875,0.662841796875,-0.5131072998046875
2023-11-22T21:52:01.018+01:00,13771.934678375,0.072784423828125,0.70220947265625,-0.4858856201171875
2023-11-22T21:52:01.038+01:00,13771.954615375,0.07745361328125,0.775421142578125,-0.5015411376953125
2023-11-22T21:52:01.058+01:00,13771.974553375,0.09381103515625,0.7818450927734375,-0.485748291015625
2023-11-22T21:52:01.077+01:00,13771.994490375,0.085296630859375,0.7292938232421875,-0.484954833984375
2023-11-22T21:52:01.097+01:00,13772.014427375,0.0715789794921875,0.744720458984375,-0.5089569091796875
2023-11-22T21:52:01.117+01:00,13772.034365375,0.0614013671875,0.8056488037109375,-0.5291290283203125
2023-11-22T21:52:01.137+01:00,13772.054302375,0.065338134765625,0.8217010498046875,-0.5557861328125
2023-11-22T21:52:01.157+01:00,13772.074240375,0.0530242919921875,0.8047637939453125,-0.605438232421875
2023-11-22T21:52:01.177+01:00,13772.094177375,0.0554962158203125,0.766510009765625,-0.597808837890625
2023-11-22T21:52:01.197+01:00,13772.114114375,0.032257080078125,0.820159912109375,-0.64190673828125
2023-11-22T21:52:01.217+01:00,13772.134052375,-0.0451507568359375,0.8801116943359375,-0.7211456298828125
2023-11-22T21:52:01.237+01:00,13772.153989375,-0.1436309814453125,0.974853515625,-0.8089447021484375
2023-11-22T21:52:01.257+01:00,13772.173927375,-0.241119384765625,1.098541259765625,-0.881622314453125
2023-11-22T21:52:01.277+01:00,13772.193864375,-0.3068389892578125,1.106201171875,-0.8858489990234375
2023-11-22T21:52:01.297+01:00,13772.213801375,-0.3219757080078125,0.95721435546875,-0.8736114501953125
2023-11-22T21:52:01.317+01:00,13772.233739375,-0.2609100341796875,0.8975830078125,-0.8454132080078125
2023-11-22T21:52:01.337+01:00,13772.253676375,-0.181060791015625,0.914398193359375,-0.826934814453125
2023-11-22T21:52:01.356+01:00,13772.273614375,-0.144195556640625,0.7804718017578125,-0.783294677734375
2023-11-22T21:52:01.376+01:00,13772.293551375,-0.13348388671875,0.8172454833984375,-0.763916015625
2023-11-22T21:52:01.396+01:00,13772.313488375,-0.121795654296875,0.8891448974609375,-0.800201416015625
2023-11-22T21:52:01.416+01:00,13772.333426375,-0.14105224609375,0.7902069091796875,-0.8188629150390625
2023-11-22T21:52:01.436+01:00,13772.353363375,-0.13983154296875,0.7428741455078125,-0.8153839111328125
2023-11-22T21:52:01.456+01:00,13772.373301375,-0.1033172607421875,0.6988677978515625,-0.8250885009765625
2023-11-22T21:52:01.476+01:00,13772.393238375,-0.056365966796875,0.651763916015625,-0.8063812255859375
2023-11-22T21:52:01.496+01:00,13772.413175375,-0.0281524658203125,0.6427001953125,-0.7908477783203125
2023-11-22T21:52:01.516+01:00,13772.433113375,-0.0012969970703125,0.5992279052734375,-0.780670166015625
2023-11-22T21:52:01.536+01:00,13772.453050375,0.0132904052734375,0.537841796875,-0.74224853515625
2023-11-22T21:52:01.556+01:00,13772.472988375,0.0081939697265625,0.55133056640625,-0.7111053466796875
2023-11-22T21:52:01.576+01:00,13772.492925375,0.014251708984375,0.5207977294921875,-0.6949005126953125
2023-11-22T21:52:01.596+01:00,13772.512862375,0.0343017578125,0.5460357666015625,-0.664031982421875
2023-11-22T21:52:01.616+01:00,13772.532800375,0.0578155517578125,0.5120086669921875,-0.6477508544921875
2023-11-22T21:52:01.636+01:00,13772.552737375,0.083404541015625,0.5418548583984375,-0.615692138671875
2023-11-22T21:52:01.656+01:00,13772.572675375,0.0615997314453125,0.545257568359375,-0.5665435791015625
2023-11-22T21:52:01.675+01:00,13772.592612375,-0.0014495849609375,0.5359954833984375,-0.478759765625
2023-11-22T21:52:01.695+01:00,13772.612549375,0.0086212158203125,0.572174072265625,-0.3706207275390625
2023-11-22T21:52:01.715+01:00,13772.632487375,0.0023345947265625,0.5877685546875,-0.311553955078125
2023-11-22T21:52:01.735+01:00,13772.652424375,-0.0467987060546875,0.52642822265625,-0.2628936767578125
2023-11-22T21:52:01.755+01:00,13772.672362375,-0.0897674560546875,0.4281768798828125,-0.1834869384765625
2023-11-22T21:52:01.775+01:00,13772.692299375,-0.2275543212890625,0.3696136474609375,-0.146942138671875
2023-11-22T21:52:01.795+01:00,13772.712236375,-0.3983001708984375,0.33612060546875,-0.07257080078125
2023-11-22T21:52:01.815+01:00,13772.732174375,-0.52105712890625,0.153472900390625,-0.1046142578125
2023-11-22T21:52:01.835+01:00,13772.752111375,-0.6081695556640625,0.15264892578125,-0.2745208740234375
2023-11-22T21:52:01.855+01:00,13772.772049375,-0.8062286376953125,0.3388824462890625,-0.717498779296875
2023-11-22T21:52:01.875+01:00,13772.791986375,-0.9045257568359375,0.450714111328125,-1.060745239257812
2023-11-22T21:52:01.895+01:00,13772.811923375,-0.841400146484375,0.3630828857421875,-1.151779174804688
2023-11-22T21:52:01.915+01:00,13772.831861375,-0.784088134765625,0.34942626953125,-1.268951416015625
2023-11-22T21:52:01.935+01:00,13772.851798375,-0.60498046875,0.9892730712890625,-1.177871704101562
2023-11-22T21:52:01.955+01:00,13772.871736375,-0.4304656982421875,1.234725952148438,-1.495254516601562
2023-11-22T21:52:01.975+01:00,13772.891673375,-0.2821044921875,1.406646728515625,-1.811676025390625
2023-11-22T21:52:01.995+01:00,13772.91161004167,-0.1846466064453125,1.477767944335938,-1.8966064453125
2023-11-22T21:52:02.014+01:00,13772.93154804167,-0.035797119140625,1.35394287109375,-2.082611083984375
2023-11-22T21:52:02.034+01:00,13772.95148504167,-0.0814971923828125,1.162933349609375,-2.11834716796875
2023-11-22T21:52:02.054+01:00,13772.97142304167,-0.2503509521484375,1.174301147460938,-2.05035400390625
2023-11-22T21:52:02.074+01:00,13772.99136004167,-0.2767333984375,1.073272705078125,-1.853424072265625
2023-11-22T21:52:02.094+01:00,13773.01129704167,-0.2472381591796875,0.9903564453125,-1.6517333984375
2023-11-22T21:52:02.114+01:00,13773.03123504167,-0.099578857421875,0.8428955078125,-1.507766723632812
2023-11-22T21:52:02.134+01:00,13773.05117204167,0.0411529541015625,0.8936614990234375,-1.217544555664062
2023-11-22T21:52:02.154+01:00,13773.07111004167,0.1628875732421875,0.7777252197265625,-0.87994384765625
2023-11-22T21:52:02.174+01:00,13773.09104704167,0.25848388671875,0.6708526611328125,-0.706787109375
2023-11-22T21:52:02.194+01:00,13773.11098404167,0.3925933837890625,0.8665313720703125,-0.63201904296875
2023-11-22T21:52:02.214+01:00,13773.13092204167,0.5142059326171875,1.1522216796875,-0.441497802734375
2023-11-22T21:52:02.234+01:00,13773.15085904167,0.5525360107421875,1.076766967773438,-0.224395751953125
2023-11-22T21:52:02.254+01:00,13773.17079604167,0.45098876953125,1.041366577148438,-0.1439208984375
2023-11-22T21:52:02.274+01:00,13773.19073404167,0.259796142578125,1.1007080078125,-0.1822509765625
2023-11-22T21:52:02.294+01:00,13773.21067104167,0.2094879150390625,1.141036987304688,-0.164337158203125
2023-11-22T21:52:02.314+01:00,13773.23060904167,0.2355194091796875,0.923858642578125,-0.2182464599609375
2023-11-22T21:52:02.334+01:00,13773.25054604167,0.1681976318359375,0.636322021484375,-0.15679931640625
2023-11-22T21:52:02.353+01:00,13773.27048304167,0.07159423828125,0.2775115966796875,-0.255126953125
2023-11-22T21:52:02.373+01:00,13773.29042104167,0.0047454833984375,0.151397705078125,-0.26007080078125
2023-11-22T21:52:02.393+01:00,13773.31035804167,-0.036712646484375,-0.062347412109375,-0.2689666748046875
2023-11-22T21:52:02.413+01:00,13773.33029604167,-0.077239990234375,-0.1702423095703125,-0.38720703125
2023-11-22T21:52:02.433+01:00,13773.35023304167,-0.0280609130859375,-0.1421051025390625,-0.480682373046875
2023-11-22T21:52:02.453+01:00,13773.37017004167,0.093292236328125,-0.097930908203125,-0.592376708984375
2023-11-22T21:52:02.473+01:00,13773.39010804167,0.2147369384765625,-0.0244598388671875,-0.63922119140625
2023-11-22T21:52:02.493+01:00,13773.41004504167,0.3356475830078125,0.0728912353515625,-0.6900787353515625
2023-11-22T21:52:02.513+01:00,13773.42998304167,0.4201202392578125,0.17999267578125,-0.8723297119140625
2023-11-22T21:52:02.533+01:00,13773.44992004167,0.4944915771484375,0.29437255859375,-0.898223876953125
2023-11-22T21:52:02.553+01:00,13773.46985704167,0.529205322265625,0.4234161376953125,-0.968292236328125
2023-11-22T21:52:02.573+01:00,13773.48979504167,0.618804931640625,0.4725494384765625,-1.03253173828125
2023-11-22T21:52:02.593+01:00,13773.50973204167,0.7393798828125,0.5145416259765625,-1.05126953125
2023-11-22T21:52:02.613+01:00,13773.52967004167,0.9683074951171875,0.6010284423828125,-1.051925659179688
2023-11-22T21:52:02.633+01:00,13773.54960704167,1.126083374023438,0.445281982421875,-1.017578125
2023-11-22T21:52:02.652+01:00,13773.56954404167,1.391708374023438,0.3661041259765625,-1.031875610351562
2023-11-22T21:52:02.672+01:00,13773.58948204167,1.502243041992188,0.645263671875,-0.986907958984375
2023-11-22T21:52:02.692+01:00,13773.60941904167,1.256805419921875,0.9083251953125,-0.987701416015625
2023-11-22T21:52:02.712+01:00,13773.62935604167,1.460037231445312,0.9276275634765625,-0.690948486328125
2023-11-22T21:52:02.732+01:00,13773.64929404167,1.696670532226562,0.86761474609375,-0.6617889404296875
2023-11-22T21:52:02.752+01:00,13773.66923104167,1.72613525390625,1.24566650390625,-0.307708740234375
2023-11-22T21:52:02.772+01:00,13773.68916904167,1.513168334960938,0.913360595703125,0.3109130859375
2023-11-22T21:52:02.792+01:00,13773.70910604167,1.161270141601562,0.428863525390625,1.637893676757812
2023-11-22T21:52:02.812+01:00,13773.72904304167,0.611236572265625,0.408782958984375,3.354049682617188
2023-11-22T21:52:02.832+01:00,13773.74898104167,0.6473541259765625,0.3122406005859375,5.420257568359375
2023-11-22T21:52:02.852+01:00,13773.76891804167,1.174407958984375,0.079071044921875,7.220703125
2023-11-22T21:52:02.872+01:00,13773.78885604167,1.023635864257812,-0.4683990478515625,7.508346557617188
2023-11-22T21:52:02.892+01:00,13773.80879304167,-1.764083862304688,-1.537490844726562,6.431381225585938
2023-11-22T21:52:02.912+01:00,13773.82873004167,-3.467788696289062,0.2484130859375,5.303924560546875
2023-11-22T21:52:02.932+01:00,13773.84866804167,-6.760162353515625,2.757293701171875,2.2685546875
2023-11-22T21:52:02.951+01:00,13773.86860504167,-9.859725952148438,7.760025024414062,1.111465454101562
2023-11-22T21:52:02.971+01:00,13773.88854304167,-11.91459655761719,6.851821899414062,1.069610595703125
2023-11-22T21:52:02.991+01:00,13773.90848029167,-12.46701049804688,7.15655517578125,-4.500961303710938
2023-11-22T21:52:03.011+01:00,13773.92841729167,-5.917083740234375,1.031417846679688,16.18754577636719
2023-11-22T21:52:03.031+01:00,13773.94835529167,-7.38861083984375,-8.084060668945312,3.83770751953125
2023-11-22T21:52:03.051+01:00,13773.96829229167,-2.658950805664062,1.916473388671875,3.167922973632812
2023-11-22T21:52:03.071+01:00,13773.98822929167,-5.09332275390625,-4.420562744140625,1.203048706054688
2023-11-22T21:52:03.091+01:00,13774.00816729167,-1.13348388671875,-4.684280395507812,1.403579711914062
2023-11-22T21:52:03.111+01:00,13774.02810429167,-1.415924072265625,-2.278152465820312,0.3230438232421875
2023-11-22T21:52:03.131+01:00,13774.04804229167,-1.822784423828125,-0.301422119140625,-0.6221160888671875
2023-11-22T21:52:03.151+01:00,13774.06797929167,-1.155288696289062,-0.042877197265625,-1.611907958984375
2023-11-22T21:52:03.171+01:00,13774.08791629167,-0.78765869140625,-0.4061126708984375,-1.718978881835938
2023-11-22T21:52:03.191+01:00,13774.10785429167,-1.468658447265625,-0.5186920166015625,-1.83489990234375
2023-11-22T21:52:03.211+01:00,13774.12779129167,-2.013824462890625,-0.429351806640625,-2.014022827148438
2023-11-22T21:52:03.231+01:00,13774.14772929167,-1.707275390625,-0.0534515380859375,-2.181045532226562
2023-11-22T21:52:03.251+01:00,13774.16766629167,-2.135177612304688,0.6641998291015625,-2.2998046875
2023-11-22T21:52:03.271+01:00,13774.18760329167,-2.550765991210938,1.383865356445312,-2.401107788085938
2023-11-22T21:52:03.290+01:00,13774.20754129167,-2.25091552734375,1.677719116210938,-2.49932861328125
2023-11-22T21:52:03.310+01:00,13774.22747829167,-1.878097534179688,1.660537719726562,-2.51141357421875
2023-11-22T21:52:03.330+01:00,13774.24741529167,-1.5108642578125,1.32330322265625,-2.106735229492188
2023-11-22T21:52:03.350+01:00,13774.26735329167,-1.33740234375,1.2401123046875,-1.986587524414062
2023-11-22T21:52:03.370+01:00,13774.28729029167,-1.055374145507812,1.258682250976562,-1.764190673828125
2023-11-22T21:52:03.390+01:00,13774.30722829167,-0.8335113525390625,1.004287719726562,-1.432952880859375
2023-11-22T21:52:03.410+01:00,13774.32716529167,-0.6734619140625,1.041366577148438,-1.078094482421875
2023-11-22T21:52:03.430+01:00,13774.34710229167,-0.6054229736328125,1.191909790039062,-0.829437255859375
2023-11-22T21:52:03.450+01:00,13774.36704029167,-0.5803070068359375,1.001800537109375,-0.643157958984375
2023-11-22T21:52:03.470+01:00,13774.38697729167,-0.529693603515625,0.962158203125,-0.512176513671875
2023-11-22T21:52:03.490+01:00,13774.40691529167,-0.4932861328125,0.83642578125,-0.474365234375
2023-11-22T21:52:03.510+01:00,13774.42685229167,-0.484344482421875,0.8350982666015625,-0.4393768310546875
2023-11-22T21:52:03.530+01:00,13774.44678929167,-0.495880126953125,0.7375335693359375,-0.4301910400390625
2023-11-22T21:52:03.550+01:00,13774.46672729167,-0.4940338134765625,0.6812591552734375,-0.4011383056640625
2023-11-22T21:52:03.570+01:00,13774.48666429167,-0.514556884765625,0.716033935546875,-0.3583984375
2023-11-22T21:52:03.590+01:00,13774.50660129167,-0.5607452392578125,0.6696319580078125,-0.344329833984375
2023-11-22T21:52:03.609+01:00,13774.52653929167,-0.522918701171875,0.60791015625,-0.3226165771484375
2023-11-22T21:52:03.629+01:00,13774.54647629167,-0.4835052490234375,0.62359619140625,-0.3068084716796875
2023-11-22T21:52:03.649+01:00,13774.56641429167,-0.505523681640625,0.5383453369140625,-0.3033294677734375
2023-11-22T21:52:03.669+01:00,13774.58635129167,-0.47491455078125,0.4474334716796875,-0.2813262939453125
2023-11-22T21:52:03.689+01:00,13774.60628829167,-0.3761444091796875,0.3766021728515625,-0.198455810546875
2023-11-22T21:52:03.709+01:00,13774.62622629167,-0.30889892578125,0.2894287109375,-0.1856231689453125
2023-11-22T21:52:03.729+01:00,13774.64616329167,-0.261138916015625,0.3171844482421875,-0.133697509765625
2023-11-22T21:52:03.749+01:00,13774.66610129167,-0.190704345703125,0.26153564453125,-0.1460723876953125
2023-11-22T21:52:03.769+01:00,13774.68603829167,-0.1323089599609375,0.2643280029296875,-0.1069183349609375
2023-11-22T21:52:03.789+01:00,13774.70597529167,-0.1139373779296875,0.2664642333984375,-0.1490631103515625
2023-11-22T21:52:03.809+01:00,13774.72591329167,-0.0820465087890625,0.30712890625,-0.1261138916015625
2023-11-22T21:52:03.829+01:00,13774.74585029167,-0.0465850830078125,0.3988037109375,-0.124237060546875
2023-11-22T21:52:03.849+01:00,13774.76578729167,-0.0263671875,0.5977935791015625,-0.2418060302734375
2023-11-22T21:52:03.869+01:00,13774.78572529167,-0.091644287109375,0.9862518310546875,-0.3762054443359375
2023-11-22T21:52:03.889+01:00,13774.80566229167,-0.2061614990234375,1.260757446289062,-0.5562896728515625
2023-11-22T21:52:03.909+01:00,13774.82560029167,-0.180145263671875,1.235214233398438,-0.476654052734375
2023-11-22T21:52:03.928+01:00,13774.84553729167,-0.345062255859375,1.187179565429688,-0.4050140380859375
2023-11-22T21:52:03.948+01:00,13774.86547429167,-0.458465576171875,1.379302978515625,-0.4451446533203125
2023-11-22T21:52:03.968+01:00,13774.88541229167,-0.357879638671875,1.513137817382812,-0.5567779541015625
2023-11-22T21:52:03.988+01:00,13774.905349625,-0.143157958984375,1.244735717773438,-0.5666961669921875
2023-11-22T21:52:04.008+01:00,13774.925286625,-0.059478759765625,0.8520355224609375,-0.5099029541015625
2023-11-22T21:52:04.028+01:00,13774.945224625,-0.0010986328125,0.6785736083984375,-0.430816650390625
2023-11-22T21:52:04.048+01:00,13774.965161625,-0.0111846923828125,0.7056427001953125,-0.3866424560546875
2023-11-22T21:52:04.068+01:00,13774.985099625,-0.0154571533203125,0.66851806640625,-0.4895782470703125
2023-11-22T21:52:04.088+01:00,13775.005036625,0.0216064453125,0.7430419921875,-0.5970306396484375
2023-11-22T21:52:04.108+01:00,13775.024973625,-0.0487518310546875,0.8318634033203125,-0.5888519287109375
2023-11-22T21:52:04.128+01:00,13775.044911625,-0.1106414794921875,0.8569793701171875,-0.6240386962890625
2023-11-22T21:52:04.148+01:00,13775.064848625,-0.1809234619140625,0.8655853271484375,-0.7530059814453125
2023-11-22T21:52:04.168+01:00,13775.084786625,-0.2177581787109375,0.93878173828125,-0.89801025390625
2023-11-22T21:52:04.188+01:00,13775.104723625,-0.2979888916015625,1.057083129882812,-0.8714599609375
2023-11-22T21:52:04.208+01:00,13775.124660625,-0.3414459228515625,1.00396728515625,-0.8387298583984375
2023-11-22T21:52:04.228+01:00,13775.144598625,-0.3495635986328125,0.917449951171875,-0.8938140869140625
2023-11-22T21:52:04.247+01:00,13775.164535625,-0.324981689453125,0.9164581298828125,-0.876708984375
2023-11-22T21:52:04.267+01:00,13775.184472625,-0.285552978515625,0.67242431640625,-0.8165130615234375
2023-11-22T21:52:04.287+01:00,13775.204410625,-0.27801513671875,0.6006927490234375,-0.753387451171875
2023-11-22T21:52:04.307+01:00,13775.224347625,-0.2753448486328125,0.7095184326171875,-0.7395172119140625
2023-11-22T21:52:04.327+01:00,13775.244285625,-0.3019256591796875,0.671051025390625,-0.730804443359375
2023-11-22T21:52:04.347+01:00,13775.264222625,-0.28045654296875,0.66748046875,-0.6739501953125
2023-11-22T21:52:04.367+01:00,13775.284159625,-0.230987548828125,0.625946044921875,-0.5877532958984375
2023-11-22T21:52:04.387+01:00,13775.304097625,-0.2132720947265625,0.6329345703125,-0.5628204345703125
2023-11-22T21:52:04.407+01:00,13775.324034625,-0.176300048828125,0.6704559326171875,-0.565093994140625
2023-11-22T21:52:04.427+01:00,13775.343972625,-0.1659088134765625,0.6550445556640625,-0.526336669921875
2023-11-22T21:52:04.447+01:00,13775.363909625,-0.17913818359375,0.64013671875,-0.5329742431640625
2023-11-22T21:52:04.467+01:00,13775.383846625,-0.2034759521484375,0.6892547607421875,-0.5510711669921875
2023-11-22T21:52:04.487+01:00,13775.403784625,-0.22576904296875,0.6223297119140625,-0.59918212890625
2023-11-22T21:52:04.507+01:00,13775.423721625,-0.264312744140625,0.7253265380859375,-0.6035003662109375
2023-11-22T21:52:04.527+01:00,13775.443658625,-0.3040008544921875,0.652069091796875,-0.5698394775390625
2023-11-22T21:52:04.547+01:00,13775.463596625,-0.3448028564453125,0.6617584228515625,-0.609619140625
2023-11-22T21:52:04.567+01:00,13775.483533625,-0.372161865234375,0.6678924560546875,-0.616729736328125
2023-11-22T21:52:04.586+01:00,13775.503471625,-0.3585205078125,0.6301422119140625,-0.6293792724609375
2023-11-22T21:52:04.606+01:00,13775.523408625,-0.3770294189453125,0.6873779296875,-0.6189117431640625
2023-11-22T21:52:04.626+01:00,13775.543345625,-0.3903961181640625,0.7451934814453125,-0.65673828125
2023-11-22T21:52:04.646+01:00,13775.563283625,-0.3834381103515625,0.7802276611328125,-0.6535186767578125
2023-11-22T21:52:04.666+01:00,13775.583220625,-0.3788299560546875,0.7645111083984375,-0.6407928466796875
2023-11-22T21:52:04.686+01:00,13775.603157625,-0.3482513427734375,0.8016204833984375,-0.6210174560546875
2023-11-22T21:52:04.706+01:00,13775.623095625,-0.3063201904296875,0.83209228515625,-0.595458984375
2023-11-22T21:52:04.726+01:00,13775.643032625,-0.2526092529296875,0.75347900390625,-0.576324462890625
2023-11-22T21:52:04.746+01:00,13775.662970625,-0.218170166015625,0.785003662109375,-0.5894927978515625
2023-11-22T21:52:04.766+01:00,13775.682907625,-0.230804443359375,0.8660736083984375,-0.6245880126953125
2023-11-22T21:52:04.786+01:00,13775.702844625,-0.2861785888671875,0.96343994140625,-0.6006622314453125
2023-11-22T21:52:04.806+01:00,13775.722782625,-0.2596282958984375,0.88922119140625,-0.5591583251953125
2023-11-22T21:52:04.826+01:00,13775.742719625,-0.2181396484375,0.6385040283203125,-0.5460052490234375
2023-11-22T21:52:04.846+01:00,13775.762656625,-0.180084228515625,0.460296630859375,-0.604522705078125
2023-11-22T21:52:04.866+01:00,13775.782594625,-0.1429595947265625,0.5067901611328125,-0.5725250244140625
2023-11-22T21:52:04.886+01:00,13775.802531625,-0.13201904296875,0.461761474609375,-0.5760955810546875
2023-11-22T21:52:04.905+01:00,13775.822469625,-0.1528778076171875,0.6295623779296875,-0.6331024169921875
2023-11-22T21:52:04.925+01:00,13775.842406625,-0.171600341796875,0.748077392578125,-0.71820068359375
2023-11-22T21:52:04.945+01:00,13775.862343625,-0.183746337890625,0.9098052978515625,-0.7317352294921875
2023-11-22T21:52:04.965+01:00,13775.882281625,-0.174591064453125,1.016830444335938,-0.8018341064453125
2023-11-22T21:52:04.985+01:00,13775.902218125,-0.223175048828125,1.031707763671875,-0.8277740478515625
2023-11-22T21:52:05.005+01:00,13775.922155125,-0.226593017578125,0.9779815673828125,-0.8424835205078125
2023-11-22T21:52:05.025+01:00,13775.942093125,-0.2008819580078125,1.032546997070312,-0.8806915283203125
2023-11-22T21:52:05.045+01:00,13775.962030125,-0.1951446533203125,1.021987915039062,-0.893829345703125
2023-11-22T21:52:05.065+01:00,13775.981968125,-0.1776123046875,0.9597930908203125,-0.8958892822265625
2023-11-22T21:52:05.085+01:00,13776.001905125,-0.189727783203125,1.01873779296875,-0.809783935546875
2023-11-22T21:52:05.105+01:00,13776.021842125,-0.179351806640625,0.9453277587890625,-0.84185791015625
2023-11-22T21:52:05.125+01:00,13776.041780125,-0.1424560546875,0.84149169921875,-0.9051666259765625
2023-11-22T21:52:05.145+01:00,13776.061717125,-0.0420379638671875,0.9025726318359375,-0.858642578125
2023-11-22T21:52:05.165+01:00,13776.081654125,-0.073394775390625,0.7911376953125,-0.7681732177734375
2023-11-22T21:52:05.185+01:00,13776.101592125,-0.113555908203125,1.08258056640625,-0.71026611328125
2023-11-22T21:52:05.204+01:00,13776.121529125,0.0009918212890625,0.6691436767578125,-0.8357086181640625
2023-11-22T21:52:05.224+01:00,13776.141467125,0.0471343994140625,0.56494140625,-0.8664093017578125
2023-11-22T21:52:05.244+01:00,13776.161404125,0.0778961181640625,0.7156829833984375,-0.8002471923828125
2023-11-22T21:52:05.264+01:00,13776.181341125,0.178680419921875,0.6202392578125,-0.7011566162109375
2023-11-22T21:52:05.284+01:00,13776.201279125,0.2064056396484375,0.484466552734375,-0.720977783203125
2023-11-22T21:52:05.304+01:00,13776.221216125,0.2528839111328125,0.541168212890625,-0.69049072265625
2023-11-22T21:52:05.325+01:00,13776.241153125,0.2748870849609375,0.5297393798828125,-0.700469970703125
2023-11-22T21:52:05.344+01:00,13776.261091125,0.3175506591796875,0.4140472412109375,-0.6899566650390625
2023-11-22T21:52:05.364+01:00,13776.281028125,0.3345947265625,0.3519287109375,-0.66070556640625
2023-11-22T21:52:05.384+01:00,13776.300966125,0.31414794921875,0.3021240234375,-0.751129150390625
2023-11-22T21:52:05.404+01:00,13776.320903125,0.3467559814453125,0.3445892333984375,-0.762939453125
2023-11-22T21:52:05.424+01:00,13776.340840125,0.3820953369140625,0.2889556884765625,-0.748779296875
2023-11-22T21:52:05.444+01:00,13776.360778125,0.4144744873046875,0.2098236083984375,-0.663909912109375
2023-11-22T21:52:05.464+01:00,13776.380715125,0.458099365234375,0.2083282470703125,-0.6941986083984375
2023-11-22T21:52:05.484+01:00,13776.400652125,0.4494476318359375,0.3082275390625,-0.7562255859375
2023-11-22T21:52:05.504+01:00,13776.420590125,0.4867401123046875,0.3333892822265625,-0.798797607421875
2023-11-22T21:52:05.524+01:00,13776.440527125,0.5541229248046875,0.1869049072265625,-0.7121124267578125
2023-11-22T21:52:05.543+01:00,13776.460465125,0.6462860107421875,0.2481231689453125,-0.6600799560546875
2023-11-22T21:52:05.563+01:00,13776.480402125,0.709930419921875,0.3596954345703125,-0.66571044921875
2023-11-22T21:52:05.583+01:00,13776.500339125,0.813812255859375,0.313720703125,-0.7692718505859375
2023-11-22T21:52:05.603+01:00,13776.520277125,0.9279327392578125,0.270263671875,-0.7645721435546875
2023-11-22T21:52:05.623+01:00,13776.540214125,1.035369873046875,0.305267333984375,-0.77191162109375
2023-11-22T21:52:05.643+01:00,13776.560151125,1.10498046875,0.411529541015625,-0.850555419921875
2023-11-22T21:52:05.663+01:00,13776.580089125,1.188827514648438,0.5264434814453125,-0.9133453369140625
2023-11-22T21:52:05.683+01:00,13776.600026125,1.249282836914062,0.5607452392578125,-0.971710205078125
2023-11-22T21:52:05.703+01:00,13776.619964125,1.295196533203125,0.6892547607421875,-0.9842681884765625
2023-11-22T21:52:05.723+01:00,13776.639901125,1.367050170898438,0.7035675048828125,-0.9268798828125
2023-11-22T21:52:05.743+01:00,13776.659838125,1.421310424804688,0.8618927001953125,-0.8098297119140625
2023-11-22T21:52:05.763+01:00,13776.679776125,1.351882934570312,1.100997924804688,-0.463592529296875
2023-11-22T21:52:05.783+01:00,13776.699713125,0.98162841796875,0.7892913818359375,0.007568359375
2023-11-22T21:52:05.803+01:00,13776.719650125,0.8894805908203125,0.3468170166015625,1.050750732421875
2023-11-22T21:52:05.823+01:00,13776.739588125,0.63629150390625,0.3889312744140625,2.707015991210938
2023-11-22T21:52:05.842+01:00,13776.759525125,-0.434844970703125,0.1386871337890625,5.03204345703125
2023-11-22T21:52:05.862+01:00,13776.779462125,-1.057601928710938,-0.89190673828125,8.167739868164062
2023-11-22T21:52:05.882+01:00,13776.799400125,-0.243408203125,-1.613235473632812,10.33283996582031
2023-11-22T21:52:05.902+01:00,13776.819337125,-3.839447021484375,-0.075775146484375,10.44593811035156
2023-11-22T21:52:05.922+01:00,13776.839275125,-7.161590576171875,3.105056762695312,8.022109985351562
2023-11-22T21:52:05.942+01:00,13776.859212125,-10.95268249511719,5.817642211914062,1.903167724609375
2023-11-22T21:52:05.962+01:00,13776.879149125,-14.91546630859375,8.753768920898438,-0.5695648193359375
2023-11-22T21:52:05.982+01:00,13776.89908654167,-19.01339721679688,9.544570922851562,-3.873458862304688
2023-11-22T21:52:06.002+01:00,13776.91902354167,-8.6328125,4.250198364257812,16.85218811035156
2023-11-22T21:52:06.022+01:00,13776.93896054167,-10.19947814941406,-13.49613952636719,3.261795043945312
2023-11-22T21:52:06.042+01:00,13776.95889854167,-3.62188720703125,8.233917236328125,3.913055419921875
2023-11-22T21:52:06.062+01:00,13776.97883554167,-5.630508422851562,-7.039138793945312,3.516555786132812
2023-11-22T21:52:06.082+01:00,13776.99877254167,-2.730010986328125,-3.085113525390625,0.6390838623046875
2023-11-22T21:52:06.101+01:00,13777.01871054167,-2.789535522460938,-4.30657958984375,0.00897216796875
2023-11-22T21:52:06.122+01:00,13777.03864754167,-2.343826293945312,-2.486618041992188,0.060302734375
2023-11-22T21:52:06.142+01:00,13777.05858554167,-2.509506225585938,-1.033157348632812,-0.5201873779296875
2023-11-22T21:52:06.161+01:00,13777.07852254167,-2.35589599609375,-0.603179931640625,-0.863128662109375
2023-11-22T21:52:06.181+01:00,13777.09845954167,-2.536041259765625,0.402099609375,-1.272689819335938
2023-11-22T21:52:06.201+01:00,13777.11839754167,-3.26043701171875,0.906646728515625,-2.036346435546875
2023-11-22T21:52:06.221+01:00,13777.13833454167,-3.36126708984375,0.555877685546875,-2.642471313476562
2023-11-22T21:52:06.241+01:00,13777.15827154167,-2.854293823242188,0.4196014404296875,-2.700042724609375
2023-11-22T21:52:06.261+01:00,13777.17820954167,-2.45648193359375,0.89447021484375,-2.335556030273438
2023-11-22T21:52:06.281+01:00,13777.19814654167,-1.844741821289062,1.21710205078125,-2.0682373046875
2023-11-22T21:52:06.301+01:00,13777.21808354167,-1.263565063476562,0.573089599609375,-1.643020629882812
2023-11-22T21:52:06.321+01:00,13777.23802154167,-0.953765869140625,0.3581085205078125,-1.483383178710938
2023-11-22T21:52:06.341+01:00,13777.25795854167,-0.869873046875,0.580230712890625,-1.311065673828125
2023-11-22T21:52:06.361+01:00,13777.27789654167,-0.86553955078125,0.84759521484375,-1.122299194335938
2023-11-22T21:52:06.381+01:00,13777.29783354167,-0.81219482421875,0.8695831298828125,-0.9866180419921875
2023-11-22T21:52:06.401+01:00,13777.31777054167,-0.680206298828125,0.732513427734375,-0.8181915283203125
2023-11-22T21:52:06.421+01:00,13777.33770854167,-0.5079498291015625,0.4946136474609375,-0.660980224609375
2023-11-22T21:52:06.441+01:00,13777.35764554167,-0.421478271484375,0.496185302734375,-0.5076751708984375
2023-11-22T21:52:06.461+01:00,13777.37758254167,-0.3272552490234375,0.340576171875,-0.342987060546875
2023-11-22T21:52:06.480+01:00,13777.39752054167,-0.21917724609375,0.2786865234375,-0.27471923828125
2023-11-22T21:52:06.500+01:00,13777.41745754167,-0.0870208740234375,0.304595947265625,-0.1419677734375
2023-11-22T21:52:06.520+01:00,13777.43739554167,-0.112762451171875,0.3198699951171875,-0.048370361328125
2023-11-22T21:52:06.540+01:00,13777.45733254167,-0.060943603515625,0.2493896484375,0.047454833984375
2023-11-22T21:52:06.560+01:00,13777.47726954167,0.00048828125,0.3283233642578125,0.010986328125
2023-11-22T21:52:06.580+01:00,13777.49720754167,-0.03143310546875,0.4708709716796875,0.02197265625
2023-11-22T21:52:06.600+01:00,13777.51714454167,-0.0417022705078125,0.555267333984375,0.1475067138671875
2023-11-22T21:52:06.620+01:00,13777.53708154167,-0.08209228515625,0.4859466552734375,0.145660400390625
2023-11-22T21:52:06.640+01:00,13777.55701954167,-0.1351470947265625,0.91119384765625,0.0576019287109375
2023-11-22T21:52:06.660+01:00,13777.57695654167,-0.266937255859375,1.563705444335938,-0.0830841064453125
2023-11-22T21:52:06.680+01:00,13777.59689354167,-0.4050140380859375,1.690292358398438,-0.03106689453125
2023-11-22T21:52:06.700+01:00,13777.61683154167,-0.432098388671875,1.290740966796875,0.0945587158203125
2023-11-22T21:52:06.720+01:00,13777.63676854167,-0.5055084228515625,1.22412109375,0.0655670166015625
2023-11-22T21:52:06.740+01:00,13777.65670654167,-0.619903564453125,1.483657836914062,-0.2021331787109375
2023-11-22T21:52:06.760+01:00,13777.67664354167,-0.705078125,1.651870727539062,-0.3899688720703125
2023-11-22T21:52:06.780+01:00,13777.69658054167,-0.690521240234375,1.347412109375,-0.2065582275390625
2023-11-22T21:52:06.799+01:00,13777.71651854167,-0.58441162109375,0.980438232421875,-0.1630859375
2023-11-22T21:52:06.819+01:00,13777.73645554167,-0.5669097900390625,0.9900054931640625,-0.2248077392578125
2023-11-22T21:52:06.839+01:00,13777.75639254167,-0.5415802001953125,1.107162475585938,-0.265045166015625
