loggingTime(txt),accelerometerTimestamp_sinceReboot(s),accelerometerAccelerationX(G),accelerometerAccelerationY(G),accelerometerAccelerationZ(G)
2023-11-29T21:31:19.461+01:00,3591.766386625,-0.093292236328125,-0.5059814453125,-0.8937835693359375
2023-11-29T21:31:19.479+01:00,3591.786323625,-0.1510162353515625,-0.4643096923828125,-0.855438232421875
2023-11-29T21:31:19.499+01:00,3591.806260625,-0.1171722412109375,-0.3803863525390625,-0.8827362060546875
2023-11-29T21:31:19.519+01:00,3591.826197625,-0.13323974609375,-0.3817138671875,-0.89068603515625
2023-11-29T21:31:19.539+01:00,3591.846134625,-0.128570556640625,-0.3927764892578125,-0.882781982421875
2023-11-29T21:31:19.559+01:00,3591.866071625,-0.1403350830078125,-0.4137420654296875,-0.88671875
2023-11-29T21:31:19.579+01:00,3591.886009625,-0.1639404296875,-0.42974853515625,-0.8746185302734375
2023-11-29T21:31:19.599+01:00,3591.905946625,-0.1918792724609375,-0.4342498779296875,-0.8626556396484375
2023-11-29T21:31:19.619+01:00,3591.925883625,-0.227447509765625,-0.444427490234375,-0.838104248046875
2023-11-29T21:31:19.639+01:00,3591.945820625,-0.26617431640625,-0.4188385009765625,-0.77984619140625
2023-11-29T21:31:19.659+01:00,3591.965757625,-0.2484283447265625,-0.38262939453125,-0.733673095703125
2023-11-29T21:31:19.681+01:00,3591.985694625,-0.26422119140625,-0.4059906005859375,-0.69976806640625
2023-11-29T21:31:19.700+01:00,3592.005631625,-0.310028076171875,-0.4268798828125,-0.645263671875
2023-11-29T21:31:19.718+01:00,3592.025568625,-0.340087890625,-0.4633331298828125,-0.613677978515625
2023-11-29T21:31:19.738+01:00,3592.045505625,-0.3721771240234375,-0.4901123046875,-0.5783233642578125
2023-11-29T21:31:19.758+01:00,3592.065443625,-0.3382720947265625,-0.2859344482421875,-0.5455322265625
2023-11-29T21:31:19.778+01:00,3592.085380625,-0.1295928955078125,-0.0167999267578125,-0.620574951171875
2023-11-29T21:31:19.798+01:00,3592.105317625,0.101837158203125,0.089447021484375,-0.734954833984375
2023-11-29T21:31:19.818+01:00,3592.125254625,0.1506500244140625,0.1323699951171875,-0.8583526611328125
2023-11-29T21:31:19.838+01:00,3592.145191625,0.0008544921875,0.06317138671875,-0.9497222900390625
2023-11-29T21:31:19.858+01:00,3592.165128625,-0.020599365234375,0.0238037109375,-1.04083251953125
2023-11-29T21:31:19.878+01:00,3592.185065625,0.065032958984375,0.2441253662109375,-1.120742797851562
2023-11-29T21:31:19.898+01:00,3592.205002625,0.1361846923828125,0.484893798828125,-1.215499877929688
2023-11-29T21:31:19.918+01:00,3592.224939625,0.12603759765625,0.53948974609375,-1.278533935546875
2023-11-29T21:31:19.938+01:00,3592.244877625,0.0523681640625,0.4261016845703125,-1.357467651367188
2023-11-29T21:31:19.958+01:00,3592.264814625,0.0051727294921875,0.335357666015625,-1.374420166015625
2023-11-29T21:31:19.978+01:00,3592.284751625,-0.03985595703125,0.2671356201171875,-1.338134765625
2023-11-29T21:31:19.998+01:00,3592.304688625,-0.05523681640625,0.2253875732421875,-1.33111572265625
2023-11-29T21:31:20.018+01:00,3592.324625625,-0.0946807861328125,0.15704345703125,-1.313156127929688
2023-11-29T21:31:20.038+01:00,3592.344562625,-0.09375,0.0700531005859375,-1.290603637695312
2023-11-29T21:31:20.058+01:00,3592.364499625,-0.110748291015625,0.0085906982421875,-1.2657470703125
2023-11-29T21:31:20.078+01:00,3592.384436625,-0.1083221435546875,0.02069091796875,-1.213348388671875
2023-11-29T21:31:20.098+01:00,3592.404374625,-0.13641357421875,0.02081298828125,-1.13690185546875
2023-11-29T21:31:20.118+01:00,3592.424311625,-0.110595703125,-0.0045318603515625,-1.073135375976562
2023-11-29T21:31:20.138+01:00,3592.444248625,-0.119964599609375,-0.0558013916015625,-1.032135009765625
2023-11-29T21:31:20.157+01:00,3592.464185625,-0.1094970703125,-0.0738525390625,-0.978240966796875
2023-11-29T21:31:20.177+01:00,3592.484122625,-0.104736328125,-0.1038360595703125,-0.899169921875
2023-11-29T21:31:20.197+01:00,3592.504059625,-0.073089599609375,-0.103179931640625,-0.8242034912109375
2023-11-29T21:31:20.217+01:00,3592.523996625,-0.0488739013671875,-0.0679168701171875,-0.7838592529296875
2023-11-29T21:31:20.237+01:00,3592.543933625,-0.094451904296875,-0.06768798828125,-0.729583740234375
2023-11-29T21:31:20.257+01:00,3592.563871625,-0.12786865234375,-0.1995086669921875,-0.6387481689453125
2023-11-29T21:31:20.277+01:00,3592.583809375,-0.14288330078125,-0.3359832763671875,-0.555572509765625
2023-11-29T21:31:20.297+01:00,3592.603746375,-0.25067138671875,-0.33917236328125,-0.509796142578125
2023-11-29T21:31:20.317+01:00,3592.623683375,-0.3972015380859375,-0.497222900390625,-0.5809783935546875
2023-11-29T21:31:20.337+01:00,3592.643620375,-0.5669403076171875,-0.5162811279296875,-0.4857025146484375
2023-11-29T21:31:20.357+01:00,3592.663557375,-0.7175750732421875,-0.2732696533203125,-0.3977813720703125
2023-11-29T21:31:20.377+01:00,3592.683494375,-0.7539825439453125,0.3111114501953125,-0.35687255859375
2023-11-29T21:31:20.396+01:00,3592.703431375,-0.6445770263671875,0.652435302734375,-0.3450469970703125
2023-11-29T21:31:20.419+01:00,3592.723369375,-0.4914398193359375,0.829986572265625,-0.2690582275390625
2023-11-29T21:31:20.437+01:00,3592.743306375,-0.3397064208984375,0.9809417724609375,-0.3218841552734375
2023-11-29T21:31:20.456+01:00,3592.763243375,-0.2527923583984375,1.201828002929688,-0.391754150390625
2023-11-29T21:31:20.476+01:00,3592.783180375,-0.1775665283203125,1.310256958007812,-0.522705078125
2023-11-29T21:31:20.496+01:00,3592.803117375,-0.1930694580078125,1.193817138671875,-0.6180267333984375
2023-11-29T21:31:20.516+01:00,3592.823054375,-0.25958251953125,0.8508148193359375,-0.65570068359375
2023-11-29T21:31:20.536+01:00,3592.842991375,-0.3716278076171875,0.5163421630859375,-0.7545928955078125
2023-11-29T21:31:20.556+01:00,3592.862929375,-0.4879150390625,0.1435546875,-0.6826171875
2023-11-29T21:31:20.576+01:00,3592.882866375,-0.6040191650390625,0.202606201171875,-0.667083740234375
2023-11-29T21:31:20.596+01:00,3592.902803375,-0.770355224609375,0.5665130615234375,-0.5323028564453125
2023-11-29T21:31:20.616+01:00,3592.922740375,-0.964996337890625,1.133407592773438,-0.5371551513671875
2023-11-29T21:31:20.636+01:00,3592.942677375,-0.917633056640625,1.3558349609375,-0.8618927001953125
2023-11-29T21:31:20.656+01:00,3592.962614375,-0.8783111572265625,1.202713012695312,-0.898895263671875
2023-11-29T21:31:20.676+01:00,3592.982551375,-0.9019012451171875,0.9092559814453125,-0.836669921875
2023-11-29T21:31:20.703+01:00,3593.002489375,-0.839691162109375,0.6180419921875,-0.6951141357421875
2023-11-29T21:31:20.716+01:00,3593.022426375,-0.5564117431640625,0.6910247802734375,-0.6719818115234375
2023-11-29T21:31:20.736+01:00,3593.042363375,-0.4532318115234375,0.634735107421875,-0.6005706787109375
2023-11-29T21:31:20.755+01:00,3593.062300375,-0.32427978515625,0.6678924560546875,-0.5239410400390625
2023-11-29T21:31:20.775+01:00,3593.082237375,-0.2674713134765625,0.8021087646484375,-0.6991119384765625
2023-11-29T21:31:20.795+01:00,3593.102174375,-0.536865234375,0.8655853271484375,-0.8007049560546875
2023-11-29T21:31:20.815+01:00,3593.122112375,-0.85919189453125,0.909515380859375,-1.019760131835938
2023-11-29T21:31:20.840+01:00,3593.142049375,-1.020065307617188,0.97442626953125,-1.128219604492188
2023-11-29T21:31:20.855+01:00,3593.161986375,-1.031875610351562,0.881683349609375,-1.220733642578125
2023-11-29T21:31:20.875+01:00,3593.181923375,-1.0364990234375,0.9285736083984375,-1.2216796875
2023-11-29T21:31:20.895+01:00,3593.201860375,-1.032028198242188,1.137771606445312,-1.152175903320312
2023-11-29T21:31:20.915+01:00,3593.221797375,-1.0633544921875,1.014251708984375,-1.092147827148438
2023-11-29T21:31:20.935+01:00,3593.241734375,-1.028228759765625,0.9298553466796875,-1.041839599609375
2023-11-29T21:31:20.955+01:00,3593.261672375,-1.05810546875,0.8918914794921875,-0.8426666259765625
2023-11-29T21:31:20.975+01:00,3593.281609375,-1.10015869140625,1.105712890625,-0.7604217529296875
2023-11-29T21:31:20.995+01:00,3593.301546375,-1.042129516601562,1.126907348632812,-0.613983154296875
2023-11-29T21:31:21.015+01:00,3593.321483375,-0.9912109375,0.98150634765625,-0.428131103515625
2023-11-29T21:31:21.034+01:00,3593.341420375,-0.78228759765625,0.9128875732421875,-0.2928619384765625
2023-11-29T21:31:21.054+01:00,3593.361357375,-0.437530517578125,0.899322509765625,-0.1261444091796875
2023-11-29T21:31:21.076+01:00,3593.381295375,-0.059295654296875,0.590484619140625,-0.0845794677734375
2023-11-29T21:31:21.095+01:00,3593.401232375,-0.0161285400390625,0.3677978515625,-0.2773284912109375
2023-11-29T21:31:21.115+01:00,3593.421169375,-0.3092498779296875,-0.090972900390625,-0.28680419921875
2023-11-29T21:31:21.134+01:00,3593.441106375,-0.3389892578125,-0.199462890625,-0.3936920166015625
2023-11-29T21:31:21.154+01:00,3593.461043375,-0.349517822265625,0.2192230224609375,-0.53900146484375
2023-11-29T21:31:21.174+01:00,3593.480980375,-0.662628173828125,0.5324249267578125,-0.5828857421875
2023-11-29T21:31:21.194+01:00,3593.500918375,-1.116409301757812,0.4554595947265625,-0.630950927734375
2023-11-29T21:31:21.214+01:00,3593.520855375,-1.485443115234375,0.504119873046875,-0.71502685546875
2023-11-29T21:31:21.234+01:00,3593.540792375,-1.950469970703125,0.6048583984375,-0.5858612060546875
2023-11-29T21:31:21.254+01:00,3593.560729375,-2.442474365234375,0.4840545654296875,-0.158660888671875
2023-11-29T21:31:21.274+01:00,3593.580667875,-2.44354248046875,0.2775115966796875,0.2874298095703125
2023-11-29T21:31:21.294+01:00,3593.600604875,-2.096725463867188,0.5045166015625,0.38134765625
2023-11-29T21:31:21.314+01:00,3593.620542875,-2.0841064453125,1.099868774414062,0.4011383056640625
2023-11-29T21:31:21.334+01:00,3593.640479875,-2.42327880859375,1.073638916015625,0.1357421875
2023-11-29T21:31:21.353+01:00,3593.660416875,-2.26153564453125,0.24456787109375,0.28546142578125
2023-11-29T21:31:21.373+01:00,3593.680353875,-1.801666259765625,-0.911102294921875,0.274566650390625
2023-11-29T21:31:21.393+01:00,3593.700290875,-1.179916381835938,-1.255706787109375,0.223785400390625
2023-11-29T21:31:21.419+01:00,3593.720228875,-1.061416625976562,-0.8698577880859375,0.16070556640625
2023-11-29T21:31:21.434+01:00,3593.740165875,-1.205078125,-0.588531494140625,-0.019744873046875
2023-11-29T21:31:21.453+01:00,3593.760102875,-1.304290771484375,-0.0414886474609375,-0.16510009765625
2023-11-29T21:31:21.473+01:00,3593.780039875,-1.3878173828125,0.106231689453125,-0.2524871826171875
2023-11-29T21:31:21.493+01:00,3593.799976875,-1.458969116210938,0.1308746337890625,-0.084564208984375
2023-11-29T21:31:21.513+01:00,3593.819913875,-1.587112426757812,-0.02142333984375,-0.0129547119140625
2023-11-29T21:31:21.540+01:00,3593.839851875,-1.732650756835938,0.00848388671875,-0.0400848388671875
2023-11-29T21:31:21.553+01:00,3593.859788875,-1.940567016601562,0.0823211669921875,-0.2363739013671875
2023-11-29T21:31:21.573+01:00,3593.879725875,-2.100006103515625,0.2823333740234375,-0.3823699951171875
2023-11-29T21:31:21.594+01:00,3593.899662875,-2.174896240234375,0.23590087890625,-0.2292938232421875
2023-11-29T21:31:21.613+01:00,3593.919599875,-2.238494873046875,0.37646484375,-0.163665771484375
2023-11-29T21:31:21.633+01:00,3593.939537875,-2.31927490234375,0.714263916015625,-0.380615234375
2023-11-29T21:31:21.653+01:00,3593.959474875,-2.37091064453125,0.8535919189453125,-0.5518035888671875
2023-11-29T21:31:21.673+01:00,3593.979411875,-2.261627197265625,0.7546234130859375,-0.402099609375
2023-11-29T21:31:21.693+01:00,3593.999348875,-2.129104614257812,0.8313140869140625,-0.3375091552734375
2023-11-29T21:31:21.713+01:00,3594.019285875,-2.124557495117188,1.064193725585938,-0.5570831298828125
2023-11-29T21:31:21.732+01:00,3594.039222875,-2.035629272460938,1.035995483398438,-0.444671630859375
2023-11-29T21:31:21.752+01:00,3594.059160875,-1.836517333984375,0.8943939208984375,-0.421600341796875
2023-11-29T21:31:21.772+01:00,3594.079097875,-1.66815185546875,1.025787353515625,-0.7035980224609375
2023-11-29T21:31:21.792+01:00,3594.099034875,-1.396469116210938,1.224746704101562,-0.5811920166015625
2023-11-29T21:31:21.812+01:00,3594.118971875,-1.076507568359375,0.964569091796875,-0.3614349365234375
2023-11-29T21:31:21.832+01:00,3594.138908875,-0.85546875,0.8292236328125,-0.287078857421875
2023-11-29T21:31:21.852+01:00,3594.158846875,-0.70452880859375,0.93951416015625,-0.38104248046875
2023-11-29T21:31:21.872+01:00,3594.178783875,-0.5050201416015625,0.8764801025390625,-0.2023468017578125
2023-11-29T21:31:21.892+01:00,3594.198720875,-0.2674560546875,0.6649627685546875,-0.011688232421875
2023-11-29T21:31:21.912+01:00,3594.218657875,-0.2852783203125,0.7845306396484375,0.035247802734375
2023-11-29T21:31:21.932+01:00,3594.238594875,-0.3018798828125,0.8065338134765625,0.0308685302734375
2023-11-29T21:31:21.952+01:00,3594.258532875,-0.293426513671875,0.722900390625,-0.057769775390625
2023-11-29T21:31:21.972+01:00,3594.278469875,-0.3695831298828125,0.6101531982421875,-0.0792083740234375
2023-11-29T21:31:21.991+01:00,3594.298406875,-0.460479736328125,0.5516815185546875,-0.1078643798828125
2023-11-29T21:31:22.011+01:00,3594.318343875,-0.486785888671875,0.48919677734375,-0.0941925048828125
2023-11-29T21:31:22.031+01:00,3594.338280875,-0.550750732421875,0.5310211181640625,-0.1052398681640625
2023-11-29T21:31:22.051+01:00,3594.358218875,-0.6404876708984375,0.4226531982421875,-0.13323974609375
2023-11-29T21:31:22.071+01:00,3594.378155875,-0.69189453125,0.4923553466796875,-0.175018310546875
2023-11-29T21:31:22.091+01:00,3594.398092875,-0.7809600830078125,0.5093536376953125,-0.1508331298828125
2023-11-29T21:31:22.111+01:00,3594.418029875,-0.82586669921875,0.555572509765625,-0.137786865234375
2023-11-29T21:31:22.131+01:00,3594.437966875,-0.8434295654296875,0.549285888671875,-0.1257171630859375
2023-11-29T21:31:22.151+01:00,3594.457904875,-0.8564453125,0.6245574951171875,-0.1571044921875
2023-11-29T21:31:22.171+01:00,3594.477841875,-0.8886566162109375,0.5985565185546875,-0.1689605712890625
2023-11-29T21:31:22.191+01:00,3594.497778875,-0.8753814697265625,0.6067352294921875,-0.194610595703125
2023-11-29T21:31:22.211+01:00,3594.517715875,-0.85687255859375,0.63543701171875,-0.1879425048828125
2023-11-29T21:31:22.231+01:00,3594.537652875,-0.7684326171875,0.5372314453125,-0.1697998046875
2023-11-29T21:31:22.251+01:00,3594.557590875,-0.683135986328125,0.4571990966796875,-0.175262451171875
2023-11-29T21:31:22.271+01:00,3594.5775275,-0.6139068603515625,0.4385986328125,-0.157012939453125
2023-11-29T21:31:22.291+01:00,3594.5974645,-0.561279296875,0.3874053955078125,-0.170166015625
2023-11-29T21:31:22.311+01:00,3594.6174015,-0.5458221435546875,0.3427886962890625,-0.1771697998046875
2023-11-29T21:31:22.330+01:00,3594.6373385,-0.514862060546875,0.317352294921875,-0.2012786865234375
2023-11-29T21:31:22.350+01:00,3594.6572765,-0.46710205078125,0.2954254150390625,-0.2225799560546875
2023-11-29T21:31:22.370+01:00,3594.6772135,-0.4200439453125,0.307403564453125,-0.256744384765625
2023-11-29T21:31:22.390+01:00,3594.6971505,-0.359161376953125,0.29510498046875,-0.29852294921875
2023-11-29T21:31:22.410+01:00,3594.7170875,-0.3408966064453125,0.3462677001953125,-0.359771728515625
2023-11-29T21:31:22.430+01:00,3594.7370245,-0.3192138671875,0.5484466552734375,-0.42242431640625
2023-11-29T21:31:22.450+01:00,3594.7569625,-0.2705535888671875,0.4425811767578125,-0.5733489990234375
2023-11-29T21:31:22.470+01:00,3594.7768995,-0.177734375,0.290679931640625,-0.5893707275390625
2023-11-29T21:31:22.490+01:00,3594.7968365,-0.0028839111328125,0.144317626953125,-0.30169677734375
2023-11-29T21:31:22.510+01:00,3594.8167735,0.0179595947265625,0.467926025390625,-0.1835784912109375
2023-11-29T21:31:22.530+01:00,3594.8367105,-0.22198486328125,1.093780517578125,-0.3832244873046875
2023-11-29T21:31:22.550+01:00,3594.8566485,-0.069091796875,0.9879302978515625,-0.5541229248046875
2023-11-29T21:31:22.570+01:00,3594.8765855,-0.014923095703125,0.71710205078125,-0.7966766357421875
2023-11-29T21:31:22.590+01:00,3594.8965225,-0.284515380859375,0.992828369140625,-0.4556121826171875
2023-11-29T21:31:22.610+01:00,3594.9164595,-0.64044189453125,1.494338989257812,-0.5537567138671875
2023-11-29T21:31:22.629+01:00,3594.9363965,-0.8624267578125,1.635940551757812,-0.6472930908203125
2023-11-29T21:31:22.649+01:00,3594.9563345,-1.082534790039062,1.598785400390625,-0.6617279052734375
2023-11-29T21:31:22.669+01:00,3594.9762715,-1.07891845703125,1.783462524414062,-0.61285400390625
2023-11-29T21:31:22.689+01:00,3594.9962085,-1.089553833007812,1.841110229492188,-0.54620361328125
2023-11-29T21:31:22.709+01:00,3595.0161455,-0.9371490478515625,1.535263061523438,-0.4622650146484375
2023-11-29T21:31:22.729+01:00,3595.0360835,-0.7275390625,1.336563110351562,-0.6208953857421875
2023-11-29T21:31:22.749+01:00,3595.0560205,-0.5021820068359375,1.11224365234375,-0.675079345703125
2023-11-29T21:31:22.769+01:00,3595.0759575,-0.28955078125,0.9437408447265625,-0.6858062744140625
2023-11-29T21:31:22.789+01:00,3595.0958945,-0.0197906494140625,0.682525634765625,-0.7076568603515625
2023-11-29T21:31:22.809+01:00,3595.1158315,0.2874755859375,0.366607666015625,-0.615020751953125
2023-11-29T21:31:22.829+01:00,3595.1357695,0.334442138671875,0.37432861328125,-0.6005859375
2023-11-29T21:31:22.849+01:00,3595.1557065,0.0634765625,0.3803863525390625,-0.59783935546875
2023-11-29T21:31:22.869+01:00,3595.1756435,-0.1093597412109375,0.5240325927734375,-0.5960845947265625
2023-11-29T21:31:22.889+01:00,3595.1955805,-0.2606658935546875,0.72283935546875,-0.3970794677734375
2023-11-29T21:31:22.909+01:00,3595.2155185,-0.4748687744140625,0.28033447265625,-0.117584228515625
2023-11-29T21:31:22.928+01:00,3595.2354555,-0.6142578125,0.8307342529296875,0.007049560546875
2023-11-29T21:31:22.948+01:00,3595.2553925,-1.005813598632812,1.42486572265625,-0.26812744140625
2023-11-29T21:31:22.968+01:00,3595.2753295,-1.395736694335938,1.618545532226562,-0.316375732421875
2023-11-29T21:31:22.988+01:00,3595.2952665,-1.307754516601562,1.637985229492188,-0.0621795654296875
2023-11-29T21:31:23.008+01:00,3595.3152045,-0.956329345703125,1.363433837890625,-0.1171722412109375
2023-11-29T21:31:23.028+01:00,3595.3351415,-0.6693572998046875,1.134658813476562,-0.6231231689453125
2023-11-29T21:31:23.048+01:00,3595.3550785,-0.5001220703125,1.552719116210938,-0.639556884765625
2023-11-29T21:31:23.068+01:00,3595.3750155,-0.473907470703125,1.203811645507812,-0.4809112548828125
2023-11-29T21:31:23.088+01:00,3595.3949535,-0.43951416015625,1.093826293945312,-0.38623046875
2023-11-29T21:31:23.108+01:00,3595.4148905,-0.3420257568359375,1.146209716796875,-0.3625030517578125
2023-11-29T21:31:23.128+01:00,3595.4348275,-0.2245941162109375,1.092742919921875,-0.383514404296875
2023-11-29T21:31:23.148+01:00,3595.4547645,-0.06292724609375,0.98260498046875,-0.369049072265625
2023-11-29T21:31:23.168+01:00,3595.4747015,0.12091064453125,0.883758544921875,-0.398101806640625
2023-11-29T21:31:23.188+01:00,3595.4946395,0.25738525390625,0.72369384765625,-0.454681396484375
2023-11-29T21:31:23.208+01:00,3595.5145765,0.3159942626953125,0.4972991943359375,-0.4483184814453125
2023-11-29T21:31:23.228+01:00,3595.5345135,0.2760467529296875,0.478271484375,-0.4330902099609375
2023-11-29T21:31:23.247+01:00,3595.5544505,0.1350250244140625,0.4560089111328125,-0.3667449951171875
2023-11-29T21:31:23.268+01:00,3595.5743885,-0.13525390625,0.5003662109375,-0.3144073486328125
2023-11-29T21:31:23.287+01:00,3595.594324791667,-0.4256134033203125,0.5910186767578125,-0.2660675048828125
2023-11-29T21:31:23.307+01:00,3595.614261791667,-0.785675048828125,0.625274658203125,-0.2446746826171875
2023-11-29T21:31:23.327+01:00,3595.634198791667,-1.242401123046875,0.5876312255859375,-0.0924072265625
2023-11-29T21:31:23.347+01:00,3595.654135791667,-1.599609375,0.6704559326171875,0.0084075927734375
2023-11-29T21:31:23.367+01:00,3595.674073791667,-1.68768310546875,0.509979248046875,0.093719482421875
2023-11-29T21:31:23.387+01:00,3595.694010791667,-2.158554077148438,0.4400787353515625,-0.08050537109375
2023-11-29T21:31:23.407+01:00,3595.713947791667,-2.962738037109375,0.36407470703125,-0.107940673828125
2023-11-29T21:31:23.427+01:00,3595.733884791667,-2.736923217773438,0.2174835205078125,-0.0120697021484375
2023-11-29T21:31:23.447+01:00,3595.753822791667,-1.946792602539062,0.1010284423828125,0.0370635986328125
2023-11-29T21:31:23.467+01:00,3595.773759791667,-1.676177978515625,-0.107879638671875,-0.059600830078125
2023-11-29T21:31:23.487+01:00,3595.793696791667,-1.486053466796875,-0.1909332275390625,-0.107391357421875
2023-11-29T21:31:23.507+01:00,3595.813633791667,-1.237258911132812,-0.1013336181640625,-0.201934814453125
2023-11-29T21:31:23.527+01:00,3595.833571791667,-1.043899536132812,-0.0280609130859375,0.111114501953125
2023-11-29T21:31:23.546+01:00,3595.853508791667,-1.22528076171875,-0.1540069580078125,0.150787353515625
2023-11-29T21:31:23.567+01:00,3595.873445791667,-1.305816650390625,0.1719970703125,-0.13861083984375
2023-11-29T21:31:23.586+01:00,3595.893382791667,-1.402297973632812,0.1252288818359375,-0.2945098876953125
2023-11-29T21:31:23.606+01:00,3595.913319791667,-1.417449951171875,0.530609130859375,0.12054443359375
2023-11-29T21:31:23.626+01:00,3595.933257791667,-1.55267333984375,0.1612701416015625,0.310699462890625
2023-11-29T21:31:23.646+01:00,3595.953194791667,-1.77490234375,0.423431396484375,0.439544677734375
2023-11-29T21:31:23.666+01:00,3595.973131791667,-1.827117919921875,0.45623779296875,0.291168212890625
2023-11-29T21:31:23.686+01:00,3595.993068791667,-1.820144653320312,0.732147216796875,0.0005340576171875
2023-11-29T21:31:23.706+01:00,3596.013006791667,-1.8427734375,0.23675537109375,-0.050048828125
2023-11-29T21:31:23.726+01:00,3596.032943791667,-1.908447265625,0.5375213623046875,-0.1566619873046875
2023-11-29T21:31:23.746+01:00,3596.052880791667,-2.106292724609375,0.7456512451171875,-0.1833343505859375
2023-11-29T21:31:23.766+01:00,3596.072817791667,-2.1263427734375,0.8026275634765625,-0.215484619140625
2023-11-29T21:31:23.786+01:00,3596.092755791667,-2.137924194335938,0.9992523193359375,-0.322052001953125
2023-11-29T21:31:23.806+01:00,3596.112692791667,-1.951217651367188,1.21710205078125,-0.4486541748046875
2023-11-29T21:31:23.826+01:00,3596.132629791667,-1.769134521484375,1.308853149414062,-0.5119476318359375
2023-11-29T21:31:23.846+01:00,3596.152566791667,-1.604095458984375,1.249969482421875,-0.4951934814453125
2023-11-29T21:31:23.871+01:00,3596.172504791667,-1.381027221679688,1.166259765625,-0.427520751953125
2023-11-29T21:31:23.886+01:00,3596.192441791667,-1.175857543945312,1.100112915039062,-0.42694091796875
2023-11-29T21:31:23.905+01:00,3596.212378791667,-1.015533447265625,1.148025512695312,-0.497283935546875
2023-11-29T21:31:23.925+01:00,3596.232315791667,-0.802093505859375,0.8527374267578125,-0.3329620361328125
2023-11-29T21:31:23.945+01:00,3596.252252791667,-0.5562896728515625,0.6953582763671875,-0.1812896728515625
2023-11-29T21:31:23.965+01:00,3596.272190791667,-0.3856048583984375,0.60699462890625,-0.2797088623046875
2023-11-29T21:31:23.985+01:00,3596.292127791667,-0.2340087890625,0.5422210693359375,-0.3004302978515625
2023-11-29T21:31:24.005+01:00,3596.312064791667,-0.14697265625,0.4327545166015625,-0.2050628662109375
2023-11-29T21:31:24.025+01:00,3596.332001791667,-0.202728271484375,0.3906097412109375,-0.088958740234375
2023-11-29T21:31:24.045+01:00,3596.351939791667,-0.2598876953125,0.4293975830078125,-0.1512908935546875
2023-11-29T21:31:24.065+01:00,3596.371876791667,-0.287811279296875,0.6114501953125,-0.388763427734375
2023-11-29T21:31:24.085+01:00,3596.391813791667,-0.4490509033203125,0.70111083984375,-0.49517822265625
2023-11-29T21:31:24.105+01:00,3596.411750791667,-0.5271453857421875,0.6627349853515625,-0.5120697021484375
2023-11-29T21:31:24.125+01:00,3596.431688791667,-0.6949005126953125,0.5736541748046875,-0.5274658203125
2023-11-29T21:31:24.145+01:00,3596.451625791667,-0.94927978515625,0.683868408203125,-0.6671600341796875
2023-11-29T21:31:24.165+01:00,3596.471562791667,-1.138885498046875,0.962890625,-0.7046051025390625
2023-11-29T21:31:24.185+01:00,3596.491499791667,-1.0721435546875,0.493621826171875,-0.49969482421875
2023-11-29T21:31:24.205+01:00,3596.511437791667,-0.844390869140625,0.3059234619140625,-0.290374755859375
2023-11-29T21:31:24.224+01:00,3596.531374791667,-0.6714935302734375,0.438201904296875,-0.4347991943359375
2023-11-29T21:31:24.244+01:00,3596.551311791667,-0.6055755615234375,0.639190673828125,-0.5344390869140625
2023-11-29T21:31:24.264+01:00,3596.571248791667,-0.61102294921875,0.5456695556640625,-0.3749542236328125
2023-11-29T21:31:24.284+01:00,3596.591186375,-0.6062164306640625,0.3141937255859375,-0.270721435546875
2023-11-29T21:31:24.304+01:00,3596.611124375,-0.5067901611328125,0.341094970703125,-0.252197265625
2023-11-29T21:31:24.324+01:00,3596.631061375,-0.5344696044921875,0.38128662109375,-0.3773956298828125
2023-11-29T21:31:24.344+01:00,3596.650998375,-0.545166015625,0.186553955078125,-0.2755126953125
2023-11-29T21:31:24.365+01:00,3596.670935375,-0.4489288330078125,0.0970001220703125,-0.1652679443359375
2023-11-29T21:31:24.384+01:00,3596.690873375,-0.476837158203125,0.240203857421875,-0.2252655029296875
2023-11-29T21:31:24.404+01:00,3596.710810375,-0.524200439453125,0.2394866943359375,-0.2994842529296875
2023-11-29T21:31:24.424+01:00,3596.730747375,-0.5875244140625,0.287506103515625,-0.3333587646484375
2023-11-29T21:31:24.444+01:00,3596.750684375,-0.649505615234375,0.3654022216796875,-0.2649993896484375
2023-11-29T21:31:24.464+01:00,3596.770622375,-0.73394775390625,0.3032379150390625,-0.2006988525390625
2023-11-29T21:31:24.484+01:00,3596.790559375,-0.753082275390625,0.30938720703125,-0.169097900390625
2023-11-29T21:31:24.504+01:00,3596.810496375,-0.739227294921875,0.3687591552734375,-0.18389892578125
2023-11-29T21:31:24.524+01:00,3596.830433375,-0.74127197265625,0.35528564453125,-0.233489990234375
2023-11-29T21:31:24.543+01:00,3596.850371375,-0.7425079345703125,0.3315582275390625,-0.211273193359375
2023-11-29T21:31:24.563+01:00,3596.870308375,-0.747283935546875,0.321380615234375,-0.1529083251953125
2023-11-29T21:31:24.583+01:00,3596.890245375,-0.811309814453125,0.3365478515625,-0.152008056640625
2023-11-29T21:31:24.603+01:00,3596.910182375,-0.8819580078125,0.49041748046875,-0.1741790771484375
2023-11-29T21:31:24.623+01:00,3596.930120375,-0.97332763671875,0.5172119140625,-0.1779632568359375
2023-11-29T21:31:24.643+01:00,3596.950057375,-0.9683685302734375,0.594390869140625,-0.2183074951171875
2023-11-29T21:31:24.663+01:00,3596.969994375,-1.07537841796875,0.586822509765625,-0.1576385498046875
2023-11-29T21:31:24.683+01:00,3596.989931375,-1.2615966796875,0.4329376220703125,-0.1497955322265625
2023-11-29T21:31:24.703+01:00,3597.009869375,-1.4749755859375,0.703948974609375,-0.213531494140625
2023-11-29T21:31:24.723+01:00,3597.029806375,-1.50762939453125,0.8529205322265625,-0.231353759765625
2023-11-29T21:31:24.743+01:00,3597.049743375,-1.350021362304688,0.7752838134765625,-0.260498046875
2023-11-29T21:31:24.763+01:00,3597.069680375,-1.290603637695312,0.967193603515625,-0.37689208984375
2023-11-29T21:31:24.783+01:00,3597.089618375,-1.019287109375,1.271224975585938,-0.56451416015625
2023-11-29T21:31:24.803+01:00,3597.109555375,-0.7602996826171875,1.260513305664062,-0.5048370361328125
2023-11-29T21:31:24.823+01:00,3597.129492375,-0.548919677734375,1.241867065429688,-0.63427734375
2023-11-29T21:31:24.843+01:00,3597.149429375,-0.1792449951171875,1.592559814453125,-1.022384643554688
2023-11-29T21:31:24.862+01:00,3597.169367375,0.3197021484375,1.607254028320312,-1.313888549804688
2023-11-29T21:31:24.882+01:00,3597.189304375,0.4394073486328125,1.937957763671875,-1.138320922851562
2023-11-29T21:31:24.902+01:00,3597.209241375,0.1873931884765625,1.820953369140625,-1.186965942382812
2023-11-29T21:31:24.922+01:00,3597.229178375,-0.092803955078125,1.818572998046875,-1.24615478515625
2023-11-29T21:31:24.942+01:00,3597.249116375,-0.2587890625,1.947006225585938,-1.122344970703125
2023-11-29T21:31:24.962+01:00,3597.269053375,-0.561126708984375,2.107421875,-1.05926513671875
2023-11-29T21:31:24.982+01:00,3597.288990375,-1.010467529296875,2.215789794921875,-0.91510009765625
2023-11-29T21:31:25.002+01:00,3597.308927375,-1.276336669921875,2.198867797851562,-0.8341827392578125
2023-11-29T21:31:25.022+01:00,3597.328865375,-1.269271850585938,1.979110717773438,-0.6958160400390625
2023-11-29T21:31:25.042+01:00,3597.348802375,-1.18695068359375,1.815628051757812,-0.457763671875
2023-11-29T21:31:25.062+01:00,3597.368739375,-1.006134033203125,1.500656127929688,-0.3459930419921875
2023-11-29T21:31:25.082+01:00,3597.388676375,-0.6534881591796875,1.26043701171875,-0.1953887939453125
2023-11-29T21:31:25.102+01:00,3597.408614375,-0.332763671875,0.982818603515625,-0.118316650390625
2023-11-29T21:31:25.122+01:00,3597.428551375,-0.0796051025390625,0.766448974609375,0.0634613037109375
2023-11-29T21:31:25.142+01:00,3597.448488375,0.022918701171875,0.4606170654296875,0.2110443115234375
2023-11-29T21:31:25.162+01:00,3597.468425375,0.21734619140625,0.225860595703125,0.3430023193359375
2023-11-29T21:31:25.181+01:00,3597.488362375,0.2935028076171875,0.081451416015625,0.3038177490234375
2023-11-29T21:31:25.201+01:00,3597.508300375,0.186981201171875,-0.0701446533203125,0.4366455078125
2023-11-29T21:31:25.221+01:00,3597.528237375,0.228485107421875,-0.325836181640625,0.5356597900390625
2023-11-29T21:31:25.242+01:00,3597.548174375,0.2168121337890625,-0.246337890625,0.5545501708984375
2023-11-29T21:31:25.261+01:00,3597.568111375,-0.0662384033203125,-0.6311187744140625,1.000823974609375
2023-11-29T21:31:25.281+01:00,3597.588048625,-0.4778594970703125,-1.41351318359375,1.874725341796875
2023-11-29T21:31:25.301+01:00,3597.607985625,-1.136032104492188,-1.455001831054688,2.051300048828125
2023-11-29T21:31:25.321+01:00,3597.627922625,-1.495758056640625,-0.8681793212890625,1.566238403320312
2023-11-29T21:31:25.341+01:00,3597.647859625,-1.879501342773438,-0.5329132080078125,0.020599365234375
2023-11-29T21:31:25.361+01:00,3597.667797625,-1.7109375,-0.228363037109375,-0.427032470703125
2023-11-29T21:31:25.381+01:00,3597.687734625,-1.167755126953125,-0.5857391357421875,0.2609710693359375
2023-11-29T21:31:25.401+01:00,3597.707671625,-1.411392211914062,-0.2529144287109375,-0.118804931640625
2023-11-29T21:31:25.421+01:00,3597.727608625,-1.392791748046875,-0.2988433837890625,-0.2713623046875
2023-11-29T21:31:25.441+01:00,3597.747546625,-1.44757080078125,-0.078765869140625,-0.41094970703125
2023-11-29T21:31:25.461+01:00,3597.767483625,-1.406112670898438,0.5878143310546875,-0.546661376953125
2023-11-29T21:31:25.480+01:00,3597.787420625,-1.40142822265625,0.956207275390625,-0.6277923583984375
2023-11-29T21:31:25.500+01:00,3597.807357625,-1.71661376953125,1.064254760742188,-0.78692626953125
2023-11-29T21:31:25.520+01:00,3597.827295625,-2.096389770507812,1.22283935546875,-0.863922119140625
2023-11-29T21:31:25.540+01:00,3597.847232625,-2.277175903320312,1.500213623046875,-0.878631591796875
2023-11-29T21:31:25.560+01:00,3597.867169625,-2.514266967773438,1.284835815429688,-1.152740478515625
2023-11-29T21:31:25.580+01:00,3597.887106625,-2.672561645507812,1.2987060546875,-1.07550048828125
2023-11-29T21:31:25.600+01:00,3597.907044625,-2.65228271484375,1.484451293945312,-0.9774017333984375
2023-11-29T21:31:25.620+01:00,3597.926981625,-2.53948974609375,1.684661865234375,-0.8382720947265625
2023-11-29T21:31:25.640+01:00,3597.946918625,-2.318283081054688,1.786056518554688,-0.7402801513671875
2023-11-29T21:31:25.660+01:00,3597.966855625,-2.061187744140625,1.663299560546875,-0.598388671875
2023-11-29T21:31:25.680+01:00,3597.986793625,-1.812301635742188,1.464752197265625,-0.4900360107421875
2023-11-29T21:31:25.700+01:00,3598.006730625,-1.566024780273438,1.249359130859375,-0.330841064453125
2023-11-29T21:31:25.720+01:00,3598.026667625,-1.36627197265625,1.04681396484375,-0.2645721435546875
2023-11-29T21:31:25.740+01:00,3598.046604625,-1.180343627929688,0.914306640625,-0.2520751953125
2023-11-29T21:31:25.760+01:00,3598.066542625,-0.8785400390625,2.008392333984375,-0.4319305419921875
2023-11-29T21:31:25.780+01:00,3598.086479625,-0.9181365966796875,0.617156982421875,-0.0584716796875
2023-11-29T21:31:25.799+01:00,3598.106416625,-0.6896820068359375,0.4398651123046875,0.0874786376953125
2023-11-29T21:31:25.819+01:00,3598.126353625,-0.6991119384765625,0.980377197265625,-0.204132080078125
2023-11-29T21:31:25.839+01:00,3598.146291625,-0.73321533203125,0.6571044921875,-0.1475372314453125
2023-11-29T21:31:25.859+01:00,3598.166228625,-0.81072998046875,0.377685546875,-0.0107879638671875
2023-11-29T21:31:25.879+01:00,3598.186165625,-0.833343505859375,0.20635986328125,0.0887603759765625
2023-11-29T21:31:25.899+01:00,3598.206102625,-0.8107452392578125,0.3492889404296875,0.1126251220703125
2023-11-29T21:31:25.919+01:00,3598.226040625,-0.8327484130859375,0.5543212890625,0.10272216796875
2023-11-29T21:31:25.939+01:00,3598.245977625,-0.8704986572265625,0.5825042724609375,0.12841796875
2023-11-29T21:31:25.959+01:00,3598.265914625,-0.8889923095703125,0.5025787353515625,0.201873779296875
2023-11-29T21:31:25.979+01:00,3598.285851625,-0.933685302734375,0.428680419921875,0.22039794921875
2023-11-29T21:31:25.999+01:00,3598.305789625,-0.9366607666015625,0.41534423828125,0.2277984619140625
2023-11-29T21:31:26.019+01:00,3598.325726625,-0.9248199462890625,0.479400634765625,0.20538330078125
2023-11-29T21:31:26.039+01:00,3598.345663625,-0.9337158203125,0.55145263671875,0.1554718017578125
2023-11-29T21:31:26.059+01:00,3598.365600625,-0.9021453857421875,0.58856201171875,0.0792388916015625
2023-11-29T21:31:26.079+01:00,3598.385538625,-0.835540771484375,0.702056884765625,-0.0260467529296875
2023-11-29T21:31:26.098+01:00,3598.405475625,-0.7439117431640625,0.7428741455078125,-0.134735107421875
2023-11-29T21:31:26.118+01:00,3598.425412625,-0.594207763671875,0.7640533447265625,-0.1580047607421875
2023-11-29T21:31:26.138+01:00,3598.445349625,-0.487274169921875,0.7569427490234375,-0.21441650390625
2023-11-29T21:31:26.158+01:00,3598.465287625,-0.4455108642578125,0.861602783203125,-0.2279510498046875
2023-11-29T21:31:26.178+01:00,3598.485224625,-0.5396728515625,0.858306884765625,-0.3152923583984375
2023-11-29T21:31:26.198+01:00,3598.505161625,-0.583221435546875,0.80889892578125,-0.266876220703125
2023-11-29T21:31:26.218+01:00,3598.525098625,-0.5701904296875,0.7216033935546875,-0.181915283203125
2023-11-29T21:31:26.238+01:00,3598.545036625,-0.5120697021484375,0.6466827392578125,-0.18243408203125
2023-11-29T21:31:26.258+01:00,3598.564973625,-0.4089813232421875,0.5963134765625,-0.171661376953125
2023-11-29T21:31:26.278+01:00,3598.584910791667,-0.2870330810546875,0.5024261474609375,-0.16217041015625
2023-11-29T21:31:26.298+01:00,3598.604847791667,-0.1373291015625,0.45867919921875,-0.132659912109375
2023-11-29T21:31:26.318+01:00,3598.624785791667,0.0135955810546875,0.5537261962890625,-0.2050018310546875
2023-11-29T21:31:26.338+01:00,3598.644722791667,0.2073974609375,0.8061981201171875,-0.255401611328125
2023-11-29T21:31:26.358+01:00,3598.664659791667,0.3382110595703125,0.55865478515625,-0.1595001220703125
2023-11-29T21:31:26.378+01:00,3598.684596791667,0.22821044921875,0.397552490234375,-0.1115264892578125
2023-11-29T21:31:26.398+01:00,3598.704534791667,-0.02777099609375,0.2766571044921875,-0.1242218017578125
2023-11-29T21:31:26.417+01:00,3598.724471791667,-0.084014892578125,0.4332122802734375,-0.234710693359375
2023-11-29T21:31:26.438+01:00,3598.744408791667,-0.2543182373046875,0.5561370849609375,-0.198577880859375
2023-11-29T21:31:26.457+01:00,3598.764345791667,-0.6363983154296875,0.70318603515625,-0.1325225830078125
2023-11-29T21:31:26.477+01:00,3598.784283791667,-1.258499145507812,0.624359130859375,-0.1866302490234375
2023-11-29T21:31:26.497+01:00,3598.804220791667,-2.430572509765625,0.608978271484375,-0.216400146484375
2023-11-29T21:31:26.517+01:00,3598.824157791667,-3.104583740234375,0.795135498046875,-0.297454833984375
2023-11-29T21:31:26.537+01:00,3598.844095791667,-2.435882568359375,0.901641845703125,-0.4827117919921875
2023-11-29T21:31:26.557+01:00,3598.864032791667,-1.944000244140625,0.6924896240234375,-0.88153076171875
2023-11-29T21:31:26.577+01:00,3598.883969791667,-1.029373168945312,1.240829467773438,-1.247695922851562
2023-11-29T21:31:26.597+01:00,3598.903906791667,0.2299957275390625,1.257110595703125,-1.580093383789062
2023-11-29T21:31:26.617+01:00,3598.923844791667,1.125457763671875,1.230697631835938,-1.942977905273438
2023-11-29T21:31:26.637+01:00,3598.943781791667,-0.1839752197265625,1.009735107421875,-1.81707763671875
2023-11-29T21:31:26.657+01:00,3598.963718791667,-0.918609619140625,0.93853759765625,-1.691497802734375
2023-11-29T21:31:26.677+01:00,3598.983655791667,-0.9257965087890625,0.795166015625,-1.6640625
2023-11-29T21:31:26.697+01:00,3599.003593791667,-0.9136962890625,1.126876831054688,-1.843734741210938
2023-11-29T21:31:26.717+01:00,3599.023530791667,-1.303726196289062,1.214797973632812,-1.805084228515625
2023-11-29T21:31:26.737+01:00,3599.043467791667,-1.53472900390625,1.086822509765625,-1.702865600585938
2023-11-29T21:31:26.757+01:00,3599.063404791667,-1.194854736328125,0.85528564453125,-1.353118896484375
2023-11-29T21:31:26.777+01:00,3599.083342791667,-0.606231689453125,0.6010284423828125,-1.112594604492188
2023-11-29T21:31:26.796+01:00,3599.103279791667,-0.23870849609375,0.5556182861328125,-0.9179840087890625
2023-11-29T21:31:26.816+01:00,3599.123216791667,0.076019287109375,0.6287994384765625,-0.7138519287109375
2023-11-29T21:31:26.836+01:00,3599.143153791667,0.39404296875,0.5098114013671875,-0.42694091796875
2023-11-29T21:31:26.856+01:00,3599.163091791667,0.9101715087890625,0.3265838623046875,-0.1483001708984375
2023-11-29T21:31:26.876+01:00,3599.183028791667,1.249038696289062,0.216796875,0.197296142578125
2023-11-29T21:31:26.896+01:00,3599.202965791667,1.238922119140625,0.6275634765625,0.19561767578125
2023-11-29T21:31:26.916+01:00,3599.222902791667,0.73724365234375,0.900115966796875,0.102020263671875
2023-11-29T21:31:26.936+01:00,3599.242840791667,0.3069610595703125,1.052749633789062,0.0178070068359375
2023-11-29T21:31:26.956+01:00,3599.262777791667,-0.17254638671875,1.253616333007812,-0.0636444091796875
2023-11-29T21:31:26.976+01:00,3599.282714791667,-0.9499359130859375,0.547393798828125,0.2574615478515625
2023-11-29T21:31:26.996+01:00,3599.302651791667,-1.741363525390625,0.9731597900390625,0.174591064453125
2023-11-29T21:31:27.016+01:00,3599.322589791667,-3.164932250976562,1.789047241210938,-0.115631103515625
2023-11-29T21:31:27.036+01:00,3599.342526791667,-3.602828979492188,1.329208374023438,0.3964385986328125
2023-11-29T21:31:27.056+01:00,3599.362463791667,-2.24505615234375,1.125534057617188,0.8328094482421875
2023-11-29T21:31:27.075+01:00,3599.382400791667,-1.905014038085938,0.896392822265625,0.730682373046875
2023-11-29T21:31:27.095+01:00,3599.402338791667,-1.940765380859375,0.139862060546875,0.5589599609375
2023-11-29T21:31:27.115+01:00,3599.422275791667,-2.1927490234375,-0.573333740234375,0.4868011474609375
2023-11-29T21:31:27.135+01:00,3599.442212791667,-2.14080810546875,-1.1341552734375,0.313262939453125
2023-11-29T21:31:27.155+01:00,3599.462149791667,-1.966354370117188,-1.400848388671875,0.2545166015625
2023-11-29T21:31:27.175+01:00,3599.482087791667,-1.852523803710938,-1.058517456054688,0.0175323486328125
2023-11-29T21:31:27.195+01:00,3599.502024791667,-1.871124267578125,-0.0297088623046875,-0.3123779296875
2023-11-29T21:31:27.215+01:00,3599.521961791667,-2.044097900390625,0.7736358642578125,-0.723785400390625
2023-11-29T21:31:27.235+01:00,3599.541898791667,-1.97308349609375,1.141098022460938,-0.366668701171875
2023-11-29T21:31:27.255+01:00,3599.561836791667,-2.165145874023438,0.7937164306640625,-0.7279510498046875
2023-11-29T21:31:27.275+01:00,3599.581773791667,-1.764984130859375,1.020965576171875,-1.066421508789062
2023-11-29T21:31:27.295+01:00,3599.601711125,-1.43499755859375,0.3936309814453125,-1.113143920898438
2023-11-29T21:31:27.315+01:00,3599.621648125,-1.779266357421875,0.0382080078125,-1.090103149414062
2023-11-29T21:31:27.335+01:00,3599.641586125,-1.711257934570312,0.4675140380859375,-1.29949951171875
2023-11-29T21:31:27.354+01:00,3599.661523125,-1.632431030273438,1.0111083984375,-1.280670166015625
2023-11-29T21:31:27.375+01:00,3599.681460125,-1.635635375976562,1.164230346679688,-1.148818969726562
2023-11-29T21:31:27.394+01:00,3599.701397125,-1.446868896484375,1.202362060546875,-1.039138793945312
2023-11-29T21:31:27.414+01:00,3599.721335125,-1.312149047851562,1.057083129882812,-0.853607177734375
2023-11-29T21:31:27.434+01:00,3599.741272125,-1.306549072265625,1.097610473632812,-0.7430877685546875
2023-11-29T21:31:27.454+01:00,3599.761209125,-1.279556274414062,1.283538818359375,-0.5690155029296875
2023-11-29T21:31:27.474+01:00,3599.781146125,-1.22259521484375,1.295394897460938,-0.448333740234375
2023-11-29T21:31:27.494+01:00,3599.801084125,-1.12457275390625,1.211822509765625,-0.3221893310546875
2023-11-29T21:31:27.514+01:00,3599.821021125,-0.9105987548828125,1.045303344726562,-0.1446685791015625
2023-11-29T21:31:27.534+01:00,3599.840958125,-0.7025146484375,0.9785614013671875,-0.067596435546875
2023-11-29T21:31:27.554+01:00,3599.860896125,-0.57830810546875,0.98876953125,0.0399169921875
2023-11-29T21:31:27.574+01:00,3599.880833125,-0.4956512451171875,1.085250854492188,0.064178466796875
2023-11-29T21:31:27.594+01:00,3599.900770125,-0.24761962890625,1.264511108398438,-0.0632781982421875
2023-11-29T21:31:27.614+01:00,3599.920707125,0.0435943603515625,1.225753784179688,-0.0994110107421875
2023-11-29T21:31:27.634+01:00,3599.940645125,0.3281402587890625,1.000900268554688,-0.170684814453125
2023-11-29T21:31:27.654+01:00,3599.960582125,0.4615478515625,1.005264282226562,-0.3030548095703125
2023-11-29T21:31:27.674+01:00,3599.980519125,0.2704925537109375,0.981597900390625,-0.3898773193359375
2023-11-29T21:31:27.694+01:00,3600.000456125,0.0401763916015625,0.893524169921875,-0.37835693359375
2023-11-29T21:31:27.714+01:00,3600.020394125,-0.0432281494140625,0.879302978515625,-0.205535888671875
2023-11-29T21:31:27.733+01:00,3600.040331125,-0.09326171875,0.743194580078125,-0.25640869140625
2023-11-29T21:31:27.755+01:00,3600.060268125,-0.141754150390625,0.6929931640625,-0.3184814453125
2023-11-29T21:31:27.773+01:00,3600.080205125,-0.34051513671875,0.7216796875,-0.356231689453125
2023-11-29T21:31:27.793+01:00,3600.100143125,-0.487762451171875,0.6982269287109375,-0.376220703125
2023-11-29T21:31:27.813+01:00,3600.120080125,-0.55364990234375,0.596710205078125,-0.3993682861328125
2023-11-29T21:31:27.833+01:00,3600.140017125,-0.6112213134765625,0.5463714599609375,-0.4514007568359375
2023-11-29T21:31:27.853+01:00,3600.159954125,-0.703338623046875,0.5629730224609375,-0.4903106689453125
2023-11-29T21:31:27.873+01:00,3600.179892125,-0.66265869140625,0.539459228515625,-0.496429443359375
2023-11-29T21:31:27.893+01:00,3600.199829125,-0.56787109375,0.412322998046875,-0.4890899658203125
2023-11-29T21:31:27.913+01:00,3600.219766125,-0.4914093017578125,0.3274078369140625,-0.514984130859375
2023-11-29T21:31:27.933+01:00,3600.239703125,-0.435516357421875,0.2933349609375,-0.5151519775390625
2023-11-29T21:31:27.953+01:00,3600.259641125,-0.4034881591796875,0.2275543212890625,-0.486328125
2023-11-29T21:31:27.973+01:00,3600.279578125,-0.3465118408203125,0.192596435546875,-0.4450836181640625
2023-11-29T21:31:27.993+01:00,3600.299515125,-0.32012939453125,0.223480224609375,-0.433197021484375
2023-11-29T21:31:28.013+01:00,3600.319452125,-0.35284423828125,0.1974334716796875,-0.4140625
2023-11-29T21:31:28.032+01:00,3600.339390125,-0.388916015625,0.180908203125,-0.3836669921875
2023-11-29T21:31:28.052+01:00,3600.359327125,-0.306304931640625,0.120208740234375,-0.38262939453125
2023-11-29T21:31:28.072+01:00,3600.379264125,-0.138702392578125,0.0926971435546875,-0.390716552734375
2023-11-29T21:31:28.092+01:00,3600.399201125,0.0221405029296875,0.14862060546875,-0.42474365234375
2023-11-29T21:31:28.112+01:00,3600.419139125,0.0488433837890625,0.1598052978515625,-0.514495849609375
2023-11-29T21:31:28.132+01:00,3600.439076125,-0.01690673828125,0.3677978515625,-0.599609375
2023-11-29T21:31:28.152+01:00,3600.459013125,-0.27685546875,0.5650482177734375,-0.538665771484375
2023-11-29T21:31:28.172+01:00,3600.478950125,-0.7997283935546875,0.6566619873046875,-0.469268798828125
2023-11-29T21:31:28.192+01:00,3600.498888125,-1.500473022460938,0.8979034423828125,-0.5224761962890625
2023-11-29T21:31:28.212+01:00,3600.518825125,-1.558197021484375,0.5835113525390625,-0.5104217529296875
2023-11-29T21:31:28.232+01:00,3600.538762125,-0.9367218017578125,0.798675537109375,-0.688812255859375
2023-11-29T21:31:28.252+01:00,3600.558699125,-0.9402008056640625,1.22796630859375,-1.076141357421875
2023-11-29T21:31:28.272+01:00,3600.578637125,-0.867584228515625,1.650314331054688,-1.40325927734375
2023-11-29T21:31:28.292+01:00,3600.5985745,-0.5345001220703125,1.208847045898438,-1.463088989257812
2023-11-29T21:31:28.312+01:00,3600.6185115,-0.3601531982421875,0.8376922607421875,-1.427749633789062
2023-11-29T21:31:28.331+01:00,3600.6384495,-0.4425811767578125,1.110977172851562,-1.47314453125
2023-11-29T21:31:28.351+01:00,3600.6583865,-0.4971160888671875,1.264480590820312,-1.510665893554688
2023-11-29T21:31:28.371+01:00,3600.6783235,-0.4113616943359375,1.091903686523438,-1.465118408203125
2023-11-29T21:31:28.391+01:00,3600.6982605,-0.4157562255859375,0.9908294677734375,-1.415420532226562
2023-11-29T21:31:28.411+01:00,3600.7181985,-0.4309844970703125,0.832794189453125,-1.302749633789062
2023-11-29T21:31:28.431+01:00,3600.7381355,-0.5114288330078125,0.8115386962890625,-1.202301025390625
2023-11-29T21:31:28.451+01:00,3600.7580725,-0.6188812255859375,0.8361663818359375,-1.045608520507812
2023-11-29T21:31:28.471+01:00,3600.7780095,-0.7601318359375,0.8126068115234375,-0.9744873046875
2023-11-29T21:31:28.491+01:00,3600.7979475,-0.8836822509765625,0.8424224853515625,-0.92816162109375
2023-11-29T21:31:28.511+01:00,3600.8178845,-0.9034881591796875,0.780487060546875,-0.901702880859375
2023-11-29T21:31:28.531+01:00,3600.8378215,-0.856781005859375,0.6262969970703125,-0.8045196533203125
2023-11-29T21:31:28.551+01:00,3600.8577585,-0.8312835693359375,0.7697296142578125,-0.8516082763671875
2023-11-29T21:31:28.571+01:00,3600.8776965,-0.7514190673828125,0.687042236328125,-1.006851196289062
2023-11-29T21:31:28.591+01:00,3600.8976335,-0.710723876953125,0.6092681884765625,-1.164031982421875
2023-11-29T21:31:28.611+01:00,3600.9175705,-0.6339569091796875,0.521942138671875,-1.253265380859375
2023-11-29T21:31:28.631+01:00,3600.9375075,-0.4724884033203125,0.7425384521484375,-1.306716918945312
2023-11-29T21:31:28.651+01:00,3600.9574455,-0.387847900390625,1.06134033203125,-1.435089111328125
2023-11-29T21:31:28.670+01:00,3600.9773825,-0.3285675048828125,1.295974731445312,-1.369644165039062
2023-11-29T21:31:28.690+01:00,3600.9973195,-0.1995849609375,0.96722412109375,-1.220870971679688
2023-11-29T21:31:28.710+01:00,3601.0172565,0.1618499755859375,1.039535522460938,-0.7938079833984375
2023-11-29T21:31:28.730+01:00,3601.0371945,0.342315673828125,1.038803100585938,-0.5941009521484375
2023-11-29T21:31:28.750+01:00,3601.0571315,0.18408203125,1.20904541015625,-0.42529296875
2023-11-29T21:31:28.770+01:00,3601.0770685,0.2131500244140625,0.9483489990234375,-0.4227294921875
2023-11-29T21:31:28.790+01:00,3601.0970055,0.0236663818359375,0.8365936279296875,-0.40643310546875
2023-11-29T21:31:28.810+01:00,3601.1169435,0.0130462646484375,0.6650238037109375,-0.493072509765625
2023-11-29T21:31:28.830+01:00,3601.1368805,-0.1217498779296875,0.551483154296875,-0.5229644775390625
2023-11-29T21:31:28.850+01:00,3601.1568175,-0.2438812255859375,0.5760345458984375,-0.5692596435546875
2023-11-29T21:31:28.870+01:00,3601.1767545,-0.4101409912109375,0.3733367919921875,-0.48345947265625
2023-11-29T21:31:28.890+01:00,3601.1966925,-0.441375732421875,0.1026458740234375,-0.39483642578125
2023-11-29T21:31:28.910+01:00,3601.2166295,-0.4750213623046875,0.0133056640625,-0.2722320556640625
2023-11-29T21:31:28.929+01:00,3601.2365665,-0.3553619384765625,0.0191802978515625,-0.088714599609375
2023-11-29T21:31:28.950+01:00,3601.2565035,-0.029754638671875,0.0040130615234375,0.20501708984375
2023-11-29T21:31:28.969+01:00,3601.2764415,0.4929046630859375,0.0077667236328125,0.782470703125
2023-11-29T21:31:28.990+01:00,3601.2963785,0.9356231689453125,-0.014434814453125,1.519119262695312
2023-11-29T21:31:29.009+01:00,3601.3163155,1.417327880859375,-0.1595611572265625,2.145614624023438
2023-11-29T21:31:29.029+01:00,3601.3362525,1.446868896484375,-0.3270721435546875,2.40972900390625
2023-11-29T21:31:29.049+01:00,3601.3561905,0.743621826171875,-0.5582733154296875,2.410125732421875
2023-11-29T21:31:29.069+01:00,3601.3761275,-0.3663330078125,-0.16015625,2.16192626953125
2023-11-29T21:31:29.089+01:00,3601.3960645,-2.01678466796875,0.778900146484375,1.928466796875
2023-11-29T21:31:29.109+01:00,3601.4160015,-3.998794555664062,1.74383544921875,0.401611328125
2023-11-29T21:31:29.129+01:00,3601.4359395,-4.076004028320312,2.437835693359375,-0.7379608154296875
2023-11-29T21:31:29.149+01:00,3601.4558765,-2.776046752929688,1.426315307617188,-1.237716674804688
2023-11-29T21:31:29.169+01:00,3601.4758135,-2.395248413085938,0.2132110595703125,-1.47637939453125
2023-11-29T21:31:29.189+01:00,3601.4957505,-2.405624389648438,-0.186767578125,-1.539657592773438
2023-11-29T21:31:29.209+01:00,3601.5156885,-2.09698486328125,-0.0764312744140625,-1.11895751953125
2023-11-29T21:31:29.229+01:00,3601.5356255,-1.981246948242188,0.768646240234375,-1.0328369140625
2023-11-29T21:31:29.249+01:00,3601.5555625,-1.986526489257812,1.649139404296875,-1.107162475585938
2023-11-29T21:31:29.269+01:00,3601.5754995,-1.740493774414062,1.662872314453125,-1.117233276367188
2023-11-29T21:31:29.288+01:00,3601.59543725,-1.607391357421875,1.3948974609375,-1.01995849609375
2023-11-29T21:31:29.308+01:00,3601.61537425,-1.53887939453125,1.311264038085938,-0.8277130126953125
2023-11-29T21:31:29.328+01:00,3601.63531125,-1.399932861328125,1.22222900390625,-0.8350982666015625
2023-11-29T21:31:29.348+01:00,3601.65524825,-1.30242919921875,1.207870483398438,-0.84613037109375
2023-11-29T21:31:29.368+01:00,3601.67518625,-1.200820922851562,1.174911499023438,-0.7712249755859375
2023-11-29T21:31:29.388+01:00,3601.69512325,-1.206039428710938,1.29290771484375,-0.8424530029296875
2023-11-29T21:31:29.408+01:00,3601.71506025,-1.128433227539062,1.11669921875,-0.736785888671875
2023-11-29T21:31:29.428+01:00,3601.73499725,-1.15557861328125,0.831390380859375,-0.6492462158203125
2023-11-29T21:31:29.448+01:00,3601.75493525,-1.097915649414062,0.7501068115234375,-0.57403564453125
2023-11-29T21:31:29.468+01:00,3601.77487225,-1.0416259765625,0.813201904296875,-0.61041259765625
2023-11-29T21:31:29.488+01:00,3601.79480925,-1.044158935546875,0.94500732421875,-0.5695648193359375
2023-11-29T21:31:29.508+01:00,3601.81474625,-1.033126831054688,1.00006103515625,-0.46246337890625
2023-11-29T21:31:29.528+01:00,3601.83468425,-0.981903076171875,1.0574951171875,-0.413848876953125
2023-11-29T21:31:29.548+01:00,3601.85462125,-0.975128173828125,1.201019287109375,-0.465972900390625
2023-11-29T21:31:29.568+01:00,3601.87455825,-1.02642822265625,1.233169555664062,-0.410797119140625
2023-11-29T21:31:29.588+01:00,3601.89449525,-0.9976654052734375,1.139175415039062,-0.2252044677734375
2023-11-29T21:31:29.607+01:00,3601.91443325,-0.8498077392578125,1.059463500976562,-0.0391387939453125
2023-11-29T21:31:29.627+01:00,3601.93437025,-0.7738189697265625,0.988372802734375,0.094482421875
2023-11-29T21:31:29.647+01:00,3601.95430725,-0.745574951171875,1.007080078125,0.1598968505859375
2023-11-29T21:31:29.667+01:00,3601.97424525,-0.7064361572265625,1.054931640625,0.181671142578125
2023-11-29T21:31:29.687+01:00,3601.99418225,-0.664093017578125,1.055191040039062,0.1332550048828125
2023-11-29T21:31:29.707+01:00,3602.01411925,-0.655670166015625,0.986541748046875,0.06939697265625
2023-11-29T21:31:29.727+01:00,3602.03405625,-0.7014923095703125,0.8985443115234375,-0.0005645751953125
2023-11-29T21:31:29.747+01:00,3602.05399325,-0.75506591796875,0.795623779296875,-0.068939208984375
2023-11-29T21:31:29.767+01:00,3602.07393125,-0.7756805419921875,0.67071533203125,-0.10748291015625
2023-11-29T21:31:29.787+01:00,3602.09386825,-0.744232177734375,0.532257080078125,-0.19317626953125
2023-11-29T21:31:29.807+01:00,3602.11380525,-0.6746826171875,0.426666259765625,-0.2856903076171875
2023-11-29T21:31:29.827+01:00,3602.13374325,-0.6137542724609375,0.358795166015625,-0.3587493896484375
2023-11-29T21:31:29.847+01:00,3602.15368025,-0.57373046875,0.302276611328125,-0.37066650390625
2023-11-29T21:31:29.867+01:00,3602.17361725,-0.5135650634765625,0.26910400390625,-0.334381103515625
2023-11-29T21:31:29.890+01:00,3602.19355425,-0.4662017822265625,0.2822265625,-0.2982025146484375
2023-11-29T21:31:29.907+01:00,3602.21349225,-0.4131011962890625,0.349151611328125,-0.2693023681640625
2023-11-29T21:31:29.927+01:00,3602.23342925,-0.382568359375,0.398651123046875,-0.2335662841796875
2023-11-29T21:31:29.946+01:00,3602.25336625,-0.3702239990234375,0.4203338623046875,-0.2147216796875
2023-11-29T21:31:29.966+01:00,3602.27330325,-0.371063232421875,0.425506591796875,-0.1922607421875
2023-11-29T21:31:29.986+01:00,3602.29324125,-0.424652099609375,0.3985748291015625,-0.2871856689453125
2023-11-29T21:31:30.006+01:00,3602.31317825,-0.47796630859375,0.391326904296875,-0.351318359375
2023-11-29T21:31:30.026+01:00,3602.33311525,-0.5404815673828125,0.3928680419921875,-0.3293304443359375
2023-11-29T21:31:30.046+01:00,3602.35305225,-0.6419830322265625,0.32000732421875,-0.3090972900390625
2023-11-29T21:31:30.066+01:00,3602.37299025,-0.7272796630859375,0.2609405517578125,-0.2012481689453125
2023-11-29T21:31:30.086+01:00,3602.39292725,-0.8507843017578125,0.3366851806640625,-0.1968841552734375
2023-11-29T21:31:30.106+01:00,3602.41286425,-0.9323883056640625,0.714813232421875,-0.4252777099609375
2023-11-29T21:31:30.126+01:00,3602.43280125,-0.985443115234375,0.933197021484375,-0.6286468505859375
2023-11-29T21:31:30.146+01:00,3602.45273925,-0.9842987060546875,0.6058349609375,-0.36505126953125
2023-11-29T21:31:30.166+01:00,3602.47267625,-0.94384765625,0.2142486572265625,-0.241607666015625
2023-11-29T21:31:30.185+01:00,3602.49261325,-0.945709228515625,0.171905517578125,-0.292144775390625
2023-11-29T21:31:30.206+01:00,3602.51255025,-0.9080047607421875,0.320220947265625,-0.347686767578125
2023-11-29T21:31:30.226+01:00,3602.53248825,-0.831024169921875,0.331024169921875,-0.33160400390625
2023-11-29T21:31:30.245+01:00,3602.55242525,-0.774932861328125,0.2637176513671875,-0.282379150390625
2023-11-29T21:31:30.265+01:00,3602.57236225,-0.743011474609375,0.2472381591796875,-0.251068115234375
2023-11-29T21:31:30.285+01:00,3602.5922985,-0.7593536376953125,0.275787353515625,-0.2325439453125
2023-11-29T21:31:30.305+01:00,3602.6122365,-0.8350677490234375,0.2910003662109375,-0.208587646484375
2023-11-29T21:31:30.325+01:00,3602.6321735,-0.9316558837890625,0.2948455810546875,-0.1894378662109375
2023-11-29T21:31:30.345+01:00,3602.6521105,-1.03448486328125,0.314666748046875,-0.183868408203125
2023-11-29T21:31:30.365+01:00,3602.6720475,-1.15142822265625,0.3353729248046875,-0.18072509765625
2023-11-29T21:31:30.385+01:00,3602.6919855,-1.264144897460938,0.352813720703125,-0.1622161865234375
2023-11-29T21:31:30.405+01:00,3602.7119225,-1.28106689453125,0.367584228515625,-0.1546630859375
2023-11-29T21:31:30.425+01:00,3602.7318595,-1.176376342773438,0.4102935791015625,-0.1680145263671875
2023-11-29T21:31:30.445+01:00,3602.7517965,-1.092529296875,0.457122802734375,-0.158538818359375
2023-11-29T21:31:30.465+01:00,3602.7717345,-1.005416870117188,0.4844818115234375,-0.1513519287109375
2023-11-29T21:31:30.485+01:00,3602.7916715,-0.9375762939453125,0.543670654296875,-0.192474365234375
2023-11-29T21:31:30.505+01:00,3602.8116085,-0.902252197265625,0.6307830810546875,-0.2137603759765625
2023-11-29T21:31:30.525+01:00,3602.8315455,-0.9056243896484375,0.6575927734375,-0.2181549072265625
2023-11-29T21:31:30.545+01:00,3602.8514835,-0.9061737060546875,0.6143646240234375,-0.219512939453125
2023-11-29T21:31:30.572+01:00,3602.8714205,-0.9600372314453125,0.5899810791015625,-0.239715576171875
2023-11-29T21:31:30.584+01:00,3602.8913575,-1.040679931640625,0.57855224609375,-0.2561492919921875
2023-11-29T21:31:30.604+01:00,3602.9112945,-1.029617309570312,0.5779876708984375,-0.26446533203125
2023-11-29T21:31:30.624+01:00,3602.9312325,-0.9613189697265625,0.5677642822265625,-0.2840423583984375
2023-11-29T21:31:30.644+01:00,3602.9511695,-0.9570770263671875,0.4387969970703125,-0.2699737548828125
2023-11-29T21:31:30.664+01:00,3602.9711065,-0.9563140869140625,0.3390655517578125,-0.2979888916015625
2023-11-29T21:31:30.684+01:00,3602.9910435,-0.9474639892578125,0.4321746826171875,-0.315765380859375
2023-11-29T21:31:30.704+01:00,3603.0109815,-0.9469146728515625,0.4036865234375,-0.2877349853515625
2023-11-29T21:31:30.724+01:00,3603.0309185,-0.93231201171875,0.389251708984375,-0.2558135986328125
2023-11-29T21:31:30.744+01:00,3603.0508555,-0.9446563720703125,0.46075439453125,-0.237213134765625
2023-11-29T21:31:30.764+01:00,3603.0707925,-0.9573516845703125,0.5322265625,-0.239898681640625
2023-11-29T21:31:30.784+01:00,3603.0907305,-0.9635772705078125,0.588165283203125,-0.250457763671875
2023-11-29T21:31:30.804+01:00,3603.1106675,-0.9629058837890625,0.566741943359375,-0.25994873046875
2023-11-29T21:31:30.824+01:00,3603.1306045,-0.9537506103515625,0.521575927734375,-0.26861572265625
2023-11-29T21:31:30.844+01:00,3603.1505415,-0.955230712890625,0.5178375244140625,-0.288787841796875
2023-11-29T21:31:30.864+01:00,3603.1704795,-0.9115447998046875,0.4802703857421875,-0.300750732421875
2023-11-29T21:31:30.883+01:00,3603.1904165,-0.8806610107421875,0.4423675537109375,-0.3039093017578125
2023-11-29T21:31:30.903+01:00,3603.2103535,-0.87774658203125,0.424957275390625,-0.311065673828125
2023-11-29T21:31:30.923+01:00,3603.2302905,-0.8536376953125,0.401947021484375,-0.3120880126953125
2023-11-29T21:31:30.943+01:00,3603.2502285,-0.852294921875,0.399200439453125,-0.319305419921875
2023-11-29T21:31:30.963+01:00,3603.2701655,-0.89569091796875,0.3836212158203125,-0.31317138671875
2023-11-29T21:31:30.983+01:00,3603.2901025,-0.9287109375,0.3791046142578125,-0.3226165771484375
2023-11-29T21:31:31.003+01:00,3603.3100395,-0.9672393798828125,0.3755340576171875,-0.31298828125
2023-11-29T21:31:31.023+01:00,3603.3299775,-1.017837524414062,0.3623504638671875,-0.3075103759765625
2023-11-29T21:31:31.043+01:00,3603.3499145,-1.049240112304688,0.3671417236328125,-0.3020477294921875
2023-11-29T21:31:31.063+01:00,3603.3698515,-1.076370239257812,0.3908538818359375,-0.3172454833984375
2023-11-29T21:31:31.083+01:00,3603.3897885,-1.084396362304688,0.4286346435546875,-0.3418731689453125
2023-11-29T21:31:31.103+01:00,3603.4097265,-1.032257080078125,0.4138641357421875,-0.33563232421875
2023-11-29T21:31:31.123+01:00,3603.4296635,-0.968536376953125,0.3585968017578125,-0.32672119140625
2023-11-29T21:31:31.143+01:00,3603.4496005,-0.935272216796875,0.3251953125,-0.3238983154296875
2023-11-29T21:31:31.163+01:00,3603.4695385,-0.9109039306640625,0.3359527587890625,-0.3287200927734375
2023-11-29T21:31:31.182+01:00,3603.4894755,-0.9178924560546875,0.3056488037109375,-0.332183837890625
2023-11-29T21:31:31.202+01:00,3603.5094125,-0.9408111572265625,0.280059814453125,-0.3450469970703125
2023-11-29T21:31:31.222+01:00,3603.5293495,-0.96221923828125,0.2292327880859375,-0.3270416259765625
2023-11-29T21:31:31.242+01:00,3603.5492875,-0.9629058837890625,0.1697540283203125,-0.306243896484375
2023-11-29T21:31:31.262+01:00,3603.5692245,-0.9372100830078125,0.165008544921875,-0.314727783203125
2023-11-29T21:31:31.282+01:00,3603.589162291667,-0.92510986328125,0.1588592529296875,-0.3025970458984375
2023-11-29T21:31:31.302+01:00,3603.609099291667,-0.9232940673828125,0.1633453369140625,-0.30218505859375
2023-11-29T21:31:31.322+01:00,3603.629037291667,-0.897186279296875,0.1844482421875,-0.308837890625
2023-11-29T21:31:31.342+01:00,3603.648974291667,-0.85797119140625,0.2064056396484375,-0.307647705078125
2023-11-29T21:31:31.363+01:00,3603.668911291667,-0.8184661865234375,0.22900390625,-0.317230224609375
2023-11-29T21:31:31.382+01:00,3603.688848291667,-0.802490234375,0.255889892578125,-0.316925048828125
2023-11-29T21:31:31.402+01:00,3603.708786291667,-0.79644775390625,0.263885498046875,-0.3033294677734375
2023-11-29T21:31:31.422+01:00,3603.728723291667,-0.804595947265625,0.2684326171875,-0.3095550537109375
2023-11-29T21:31:31.442+01:00,3603.748660291667,-0.83062744140625,0.2861175537109375,-0.32220458984375
2023-11-29T21:31:31.462+01:00,3603.768597291667,-0.8682403564453125,0.2758331298828125,-0.3505096435546875
2023-11-29T21:31:31.481+01:00,3603.788535291667,-0.8843841552734375,0.254150390625,-0.3832244873046875
2023-11-29T21:31:31.501+01:00,3603.808472291667,-0.8794403076171875,0.241363525390625,-0.390228271484375
2023-11-29T21:31:31.521+01:00,3603.828409291667,-0.849822998046875,0.2165374755859375,-0.401275634765625
2023-11-29T21:31:31.541+01:00,3603.848346291667,-0.8208465576171875,0.220977783203125,-0.4387359619140625
2023-11-29T21:31:31.561+01:00,3603.868284291667,-0.78668212890625,0.2176361083984375,-0.4353485107421875
2023-11-29T21:31:31.581+01:00,3603.888221291667,-0.7573699951171875,0.180877685546875,-0.43670654296875
2023-11-29T21:31:31.601+01:00,3603.908158291667,-0.744476318359375,0.1889801025390625,-0.4655609130859375
2023-11-29T21:31:31.621+01:00,3603.928095291667,-0.741180419921875,0.1977996826171875,-0.511077880859375
2023-11-29T21:31:31.641+01:00,3603.948033291667,-0.74554443359375,0.1714935302734375,-0.554840087890625
2023-11-29T21:31:31.661+01:00,3603.967970291667,-0.7443084716796875,0.1519012451171875,-0.585205078125
2023-11-29T21:31:31.681+01:00,3603.987907291667,-0.760772705078125,0.13677978515625,-0.58111572265625
2023-11-29T21:31:31.701+01:00,3604.007844291667,-0.7667236328125,0.1526031494140625,-0.59686279296875
2023-11-29T21:31:31.721+01:00,3604.027782291667,-0.780029296875,0.2085418701171875,-0.606842041015625
2023-11-29T21:31:31.741+01:00,3604.047719291667,-0.783203125,0.2448577880859375,-0.596099853515625
2023-11-29T21:31:31.761+01:00,3604.067656291667,-0.813385009765625,0.2692718505859375,-0.5897979736328125
2023-11-29T21:31:31.781+01:00,3604.087593291667,-0.83221435546875,0.303680419921875,-0.571746826171875
2023-11-29T21:31:31.801+01:00,3604.107531291667,-0.84307861328125,0.3551177978515625,-0.571441650390625
2023-11-29T21:31:31.821+01:00,3604.127468291667,-0.8413848876953125,0.3921051025390625,-0.5606689453125
2023-11-29T21:31:31.840+01:00,3604.147405291667,-0.8326568603515625,0.4650726318359375,-0.5471343994140625
2023-11-29T21:31:31.860+01:00,3604.167342291667,-0.847137451171875,0.42034912109375,-0.5285797119140625
2023-11-29T21:31:31.880+01:00,3604.187280291667,-0.834442138671875,0.35479736328125,-0.515167236328125
2023-11-29T21:31:31.900+01:00,3604.207217291667,-0.8392486572265625,0.2904510498046875,-0.4925994873046875
2023-11-29T21:31:31.920+01:00,3604.227154291667,-0.8082275390625,0.196319580078125,-0.4594573974609375
2023-11-29T21:31:31.940+01:00,3604.247092291667,-0.7847747802734375,0.1414794921875,-0.452423095703125
2023-11-29T21:31:31.960+01:00,3604.267029291667,-0.8115386962890625,0.1278533935546875,-0.4513092041015625
2023-11-29T21:31:31.980+01:00,3604.286966291667,-0.863525390625,0.1537933349609375,-0.48834228515625
2023-11-29T21:31:32.000+01:00,3604.306903291667,-0.923065185546875,0.224639892578125,-0.5042266845703125
2023-11-29T21:31:32.020+01:00,3604.326841291667,-0.98089599609375,0.275360107421875,-0.5359954833984375
2023-11-29T21:31:32.040+01:00,3604.346778291667,-1.0030517578125,0.3309326171875,-0.5443878173828125
2023-11-29T21:31:32.060+01:00,3604.366715291667,-1.033935546875,0.362060546875,-0.5498504638671875
2023-11-29T21:31:32.080+01:00,3604.386652291667,-0.9973297119140625,0.3471832275390625,-0.5239410400390625
2023-11-29T21:31:32.100+01:00,3604.406590291667,-0.9327239990234375,0.305145263671875,-0.4862213134765625
2023-11-29T21:31:32.120+01:00,3604.426527291667,-0.857666015625,0.30352783203125,-0.421295166015625
2023-11-29T21:31:32.140+01:00,3604.446464291667,-0.828369140625,0.302215576171875,-0.3762664794921875
2023-11-29T21:31:32.159+01:00,3604.466401291667,-0.818084716796875,0.309600830078125,-0.3520050048828125
2023-11-29T21:31:32.179+01:00,3604.486339291667,-0.8027801513671875,0.3117828369140625,-0.316436767578125
2023-11-29T21:31:32.199+01:00,3604.506276291667,-0.768157958984375,0.323699951171875,-0.281158447265625
2023-11-29T21:31:32.219+01:00,3604.526213291667,-0.758270263671875,0.3172760009765625,-0.234161376953125
2023-11-29T21:31:32.239+01:00,3604.546150291667,-0.786895751953125,0.324981689453125,-0.212249755859375
2023-11-29T21:31:32.259+01:00,3604.566088291667,-0.7970733642578125,0.347320556640625,-0.2171478271484375
2023-11-29T21:31:32.279+01:00,3604.586025291667,-0.8025054931640625,0.3872528076171875,-0.238677978515625
2023-11-29T21:31:32.299+01:00,3604.60596225,-0.82122802734375,0.4297943115234375,-0.2593841552734375
2023-11-29T21:31:32.319+01:00,3604.62589925,-0.8458099365234375,0.4602203369140625,-0.2772979736328125
2023-11-29T21:31:32.339+01:00,3604.64583725,-0.875,0.4778900146484375,-0.2997894287109375
2023-11-29T21:31:32.359+01:00,3604.66577425,-0.925384521484375,0.49481201171875,-0.3334503173828125
2023-11-29T21:31:32.379+01:00,3604.68571125,-1.00604248046875,0.503814697265625,-0.3570404052734375
2023-11-29T21:31:32.399+01:00,3604.70564825,-1.00811767578125,0.4292755126953125,-0.3105926513671875
2023-11-29T21:31:32.419+01:00,3604.72558625,-1.038253784179688,0.326446533203125,-0.3044586181640625
2023-11-29T21:31:32.439+01:00,3604.74552325,-1.113250732421875,0.36761474609375,-0.27862548828125
2023-11-29T21:31:32.459+01:00,3604.76546025,-1.084686279296875,0.3734283447265625,-0.2334747314453125
2023-11-29T21:31:32.478+01:00,3604.78539725,-0.9600677490234375,0.2952423095703125,-0.1898040771484375
2023-11-29T21:31:32.498+01:00,3604.80533525,-0.87164306640625,0.2503662109375,-0.18328857421875
2023-11-29T21:31:32.518+01:00,3604.82527225,-0.8651123046875,0.2886505126953125,-0.1779327392578125
2023-11-29T21:31:32.538+01:00,3604.84520925,-0.851287841796875,0.2952880859375,-0.173004150390625
2023-11-29T21:31:32.558+01:00,3604.86514625,-0.8326873779296875,0.3106536865234375,-0.15374755859375
2023-11-29T21:31:32.578+01:00,3604.88508425,-0.87774658203125,0.3557281494140625,-0.1517181396484375
2023-11-29T21:31:32.598+01:00,3604.90502125,-0.9571533203125,0.4193267822265625,-0.1606903076171875
2023-11-29T21:31:32.618+01:00,3604.92495825,-0.9934234619140625,0.455169677734375,-0.1689605712890625
2023-11-29T21:31:32.638+01:00,3604.94489525,-0.988800048828125,0.4588775634765625,-0.1653900146484375
2023-11-29T21:31:32.658+01:00,3604.96483325,-0.9763946533203125,0.4525604248046875,-0.1856231689453125
2023-11-29T21:31:32.678+01:00,3604.98477025,-0.978607177734375,0.471466064453125,-0.2035369873046875
2023-11-29T21:31:32.698+01:00,3605.00470725,-0.995819091796875,0.4545745849609375,-0.1995697021484375
2023-11-29T21:31:32.718+01:00,3605.02464425,-0.989227294921875,0.4805145263671875,-0.1890106201171875
2023-11-29T21:31:32.738+01:00,3605.04458225,-0.9734649658203125,0.548828125,-0.1810302734375
2023-11-29T21:31:32.758+01:00,3605.06451925,-0.96087646484375,0.4277801513671875,-0.1865234375
2023-11-29T21:31:32.777+01:00,3605.08445625,-0.9478759765625,0.34820556640625,-0.1747589111328125
2023-11-29T21:31:32.797+01:00,3605.10439325,-0.928375244140625,0.36846923828125,-0.2469635009765625
2023-11-29T21:31:32.817+01:00,3605.12433125,-0.9265289306640625,0.2181854248046875,-0.3022918701171875
2023-11-29T21:31:32.837+01:00,3605.14426825,-0.89642333984375,0.08489990234375,-0.1888580322265625
2023-11-29T21:31:32.857+01:00,3605.16420525,-0.9251708984375,0.1035308837890625,-0.06781005859375
2023-11-29T21:31:32.877+01:00,3605.18414225,-0.94403076171875,0.3101043701171875,-0.127532958984375
2023-11-29T21:31:32.897+01:00,3605.20408025,-0.9861907958984375,0.6670989990234375,-0.402740478515625
2023-11-29T21:31:32.917+01:00,3605.22401725,-1.090255737304688,0.543792724609375,-0.3649749755859375
2023-11-29T21:31:32.937+01:00,3605.24395425,-1.08404541015625,0.11572265625,-0.2464141845703125
2023-11-29T21:31:32.957+01:00,3605.26389225,-1.148117065429688,0.0454559326171875,-0.310516357421875
2023-11-29T21:31:32.977+01:00,3605.28382925,-1.136672973632812,0.0762481689453125,-0.3632049560546875
2023-11-29T21:31:32.997+01:00,3605.30376625,-1.080520629882812,0.1356658935546875,-0.354217529296875
2023-11-29T21:31:33.017+01:00,3605.32370325,-0.980224609375,0.274627685546875,-0.3416748046875
2023-11-29T21:31:33.037+01:00,3605.34364125,-0.90606689453125,0.4212646484375,-0.3700103759765625
2023-11-29T21:31:33.057+01:00,3605.36357825,-0.837677001953125,0.5619659423828125,-0.437042236328125
2023-11-29T21:31:33.077+01:00,3605.38351525,-0.834197998046875,0.58721923828125,-0.5554656982421875
2023-11-29T21:31:33.096+01:00,3605.40345225,-0.7952423095703125,0.4447021484375,-0.6238250732421875
2023-11-29T21:31:33.116+01:00,3605.42339025,-0.8128814697265625,0.4075469970703125,-0.500335693359375
2023-11-29T21:31:33.136+01:00,3605.44332725,-0.830413818359375,0.148345947265625,-0.430816650390625
2023-11-29T21:31:33.156+01:00,3605.46326425,-0.797943115234375,0.1862945556640625,-0.2601470947265625
2023-11-29T21:31:33.176+01:00,3605.48320125,-0.9039154052734375,0.1815643310546875,-0.2823028564453125
2023-11-29T21:31:33.196+01:00,3605.50313925,-0.9056549072265625,0.247955322265625,-0.38092041015625
2023-11-29T21:31:33.216+01:00,3605.52307625,-0.90509033203125,0.4417266845703125,-0.6243133544921875
2023-11-29T21:31:33.236+01:00,3605.54301325,-0.845947265625,0.67205810546875,-0.5009613037109375
2023-11-29T21:31:33.256+01:00,3605.56295025,-0.8485870361328125,0.4085235595703125,-0.309844970703125
2023-11-29T21:31:33.276+01:00,3605.58288825,-0.7749481201171875,0.1933135986328125,-0.2338409423828125
2023-11-29T21:31:33.296+01:00,3605.602825125,-0.7967681884765625,0.3046112060546875,-0.2802886962890625
2023-11-29T21:31:33.316+01:00,3605.622762125,-0.7834320068359375,0.488525390625,-0.3686981201171875
2023-11-29T21:31:33.336+01:00,3605.642699125,-0.7494354248046875,0.42742919921875,-0.4113616943359375
2023-11-29T21:31:33.356+01:00,3605.662637125,-0.7326812744140625,0.4068450927734375,-0.3615570068359375
2023-11-29T21:31:33.376+01:00,3605.682574125,-0.7362060546875,0.3794708251953125,-0.3292694091796875
2023-11-29T21:31:33.396+01:00,3605.702511125,-0.730682373046875,0.3664093017578125,-0.342132568359375
2023-11-29T21:31:33.415+01:00,3605.722448125,-0.7404632568359375,0.3818817138671875,-0.34820556640625
2023-11-29T21:31:33.435+01:00,3605.742386125,-0.7442626953125,0.3561859130859375,-0.3759918212890625
2023-11-29T21:31:33.455+01:00,3605.762323125,-0.7589263916015625,0.3430938720703125,-0.3560028076171875
2023-11-29T21:31:33.475+01:00,3605.782260125,-0.794281005859375,0.28668212890625,-0.3435821533203125
2023-11-29T21:31:33.495+01:00,3605.802197125,-0.8455810546875,0.344390869140625,-0.3839874267578125
2023-11-29T21:31:33.515+01:00,3605.822135125,-0.925537109375,0.379730224609375,-0.4407196044921875
2023-11-29T21:31:33.535+01:00,3605.842072125,-0.975189208984375,0.3083953857421875,-0.4554443359375
2023-11-29T21:31:33.555+01:00,3605.862009125,-1.00616455078125,0.2812652587890625,-0.458770751953125
2023-11-29T21:31:33.575+01:00,3605.881946125,-0.9921875,0.335693359375,-0.466156005859375
2023-11-29T21:31:33.595+01:00,3605.901884125,-0.9932098388671875,0.356689453125,-0.4756622314453125
2023-11-29T21:31:33.615+01:00,3605.921821125,-1.011581420898438,0.34759521484375,-0.4671173095703125
2023-11-29T21:31:33.635+01:00,3605.941758125,-1.028076171875,0.289947509765625,-0.43463134765625
2023-11-29T21:31:33.655+01:00,3605.961695125,-1.00689697265625,0.243927001953125,-0.4088287353515625
2023-11-29T21:31:33.675+01:00,3605.981633125,-0.96270751953125,0.19647216796875,-0.375274658203125
2023-11-29T21:31:33.695+01:00,3606.001570125,-0.9235687255859375,0.1932373046875,-0.3455657958984375
2023-11-29T21:31:33.715+01:00,3606.021507125,-0.92376708984375,0.185791015625,-0.3101654052734375
2023-11-29T21:31:33.735+01:00,3606.041444125,-0.911285400390625,0.176300048828125,-0.2859039306640625
2023-11-29T21:31:33.755+01:00,3606.061382125,-0.884490966796875,0.173187255859375,-0.2586822509765625
2023-11-29T21:31:33.774+01:00,3606.081319125,-0.868682861328125,0.1705322265625,-0.245147705078125
2023-11-29T21:31:33.794+01:00,3606.101256125,-0.8428955078125,0.194000244140625,-0.2479705810546875
2023-11-29T21:31:33.814+01:00,3606.121193125,-0.810333251953125,0.19097900390625,-0.2551727294921875
2023-11-29T21:31:33.834+01:00,3606.141131125,-0.7624359130859375,0.20233154296875,-0.28839111328125
2023-11-29T21:31:33.854+01:00,3606.161068125,-0.72784423828125,0.2356414794921875,-0.313446044921875
2023-11-29T21:31:33.874+01:00,3606.181005125,-0.703521728515625,0.2446746826171875,-0.3257904052734375
2023-11-29T21:31:33.894+01:00,3606.200942125,-0.6981048583984375,0.2733917236328125,-0.35504150390625
2023-11-29T21:31:33.914+01:00,3606.220880125,-0.7114410400390625,0.3301239013671875,-0.3928070068359375
2023-11-29T21:31:33.934+01:00,3606.240817125,-0.721221923828125,0.3523712158203125,-0.4365081787109375
2023-11-29T21:31:33.954+01:00,3606.260754125,-0.7172698974609375,0.3611297607421875,-0.505401611328125
2023-11-29T21:31:33.974+01:00,3606.280691125,-0.7627716064453125,0.3841094970703125,-0.5872039794921875
2023-11-29T21:31:33.994+01:00,3606.300629125,-0.82891845703125,0.3938140869140625,-0.6634521484375
2023-11-29T21:31:34.014+01:00,3606.320566125,-0.902008056640625,0.404205322265625,-0.6815338134765625
2023-11-29T21:31:34.034+01:00,3606.340503125,-0.9948272705078125,0.403594970703125,-0.679718017578125
2023-11-29T21:31:34.053+01:00,3606.360440125,-1.04437255859375,0.3913726806640625,-0.6414794921875
2023-11-29T21:31:34.073+01:00,3606.380378125,-1.039306640625,0.3870849609375,-0.5770263671875
2023-11-29T21:31:34.093+01:00,3606.400315125,-1.0074462890625,0.370391845703125,-0.4976348876953125
2023-11-29T21:31:34.113+01:00,3606.420252125,-0.973052978515625,0.360626220703125,-0.4294281005859375
2023-11-29T21:31:34.133+01:00,3606.440189125,-0.95965576171875,0.343475341796875,-0.372528076171875
2023-11-29T21:31:34.153+01:00,3606.460127125,-0.9364471435546875,0.3056488037109375,-0.3301239013671875
2023-11-29T21:31:34.173+01:00,3606.480064125,-0.9290771484375,0.2533721923828125,-0.3079071044921875
2023-11-29T21:31:34.193+01:00,3606.500001125,-0.9233551025390625,0.188751220703125,-0.2628021240234375
2023-11-29T21:31:34.213+01:00,3606.519938125,-0.876220703125,0.19287109375,-0.23583984375
2023-11-29T21:31:34.233+01:00,3606.539876125,-0.8394622802734375,0.2073822021484375,-0.218841552734375
2023-11-29T21:31:34.253+01:00,3606.559813125,-0.810577392578125,0.191436767578125,-0.195648193359375
2023-11-29T21:31:34.273+01:00,3606.579750125,-0.7860107421875,0.1745452880859375,-0.1730499267578125
2023-11-29T21:31:34.293+01:00,3606.59968725,-0.780029296875,0.2032623291015625,-0.1689300537109375
2023-11-29T21:31:34.313+01:00,3606.61962525,-0.79315185546875,0.2206573486328125,-0.16680908203125
2023-11-29T21:31:34.333+01:00,3606.63956225,-0.81536865234375,0.2505035400390625,-0.15887451171875
2023-11-29T21:31:34.352+01:00,3606.65949925,-0.8509063720703125,0.259857177734375,-0.1575469970703125
2023-11-29T21:31:34.372+01:00,3606.67943625,-0.9028472900390625,0.280853271484375,-0.1749725341796875
2023-11-29T21:31:34.392+01:00,3606.69937425,-0.9450225830078125,0.324310302734375,-0.209991455078125
2023-11-29T21:31:34.412+01:00,3606.71931125,-0.96136474609375,0.3529510498046875,-0.2381744384765625
2023-11-29T21:31:34.432+01:00,3606.73924825,-0.9796600341796875,0.362060546875,-0.2533721923828125
2023-11-29T21:31:34.452+01:00,3606.75918625,-1.0296630859375,0.3830413818359375,-0.2725830078125
2023-11-29T21:31:34.472+01:00,3606.77912325,-1.070968627929688,0.420684814453125,-0.287628173828125
2023-11-29T21:31:34.492+01:00,3606.79906025,-1.08770751953125,0.4485626220703125,-0.3042449951171875
2023-11-29T21:31:34.512+01:00,3606.81899725,-1.050399780273438,0.4448699951171875,-0.2941131591796875
2023-11-29T21:31:34.532+01:00,3606.83893425,-0.9997711181640625,0.4092559814453125,-0.2634429931640625
2023-11-29T21:31:34.552+01:00,3606.85887225,-0.9277191162109375,0.4031219482421875,-0.27197265625
2023-11-29T21:31:34.572+01:00,3606.87880925,-0.8538665771484375,0.4186859130859375,-0.30853271484375
2023-11-29T21:31:34.592+01:00,3606.89874625,-0.807525634765625,0.3999786376953125,-0.3179473876953125
2023-11-29T21:31:34.612+01:00,3606.91868425,-0.7814788818359375,0.3368988037109375,-0.303955078125
2023-11-29T21:31:34.632+01:00,3606.93862125,-0.7657470703125,0.3157196044921875,-0.2911376953125
2023-11-29T21:31:34.661+01:00,3606.95855825,-0.8145751953125,0.3120574951171875,-0.26678466796875
2023-11-29T21:31:34.672+01:00,3606.97849525,-0.925323486328125,0.34918212890625,-0.26605224609375
2023-11-29T21:31:34.692+01:00,3606.99843225,-1.005783081054688,0.3603973388671875,-0.265777587890625
2023-11-29T21:31:34.711+01:00,3607.01837025,-1.011383056640625,0.33331298828125,-0.2516632080078125
2023-11-29T21:31:34.731+01:00,3607.03830725,-1.012130737304688,0.319854736328125,-0.243194580078125
2023-11-29T21:31:34.751+01:00,3607.05824425,-1.0047607421875,0.371673583984375,-0.238067626953125
2023-11-29T21:31:34.771+01:00,3607.07818225,-0.98699951171875,0.428955078125,-0.25543212890625
2023-11-29T21:31:34.792+01:00,3607.09811925,-0.9555206298828125,0.4576263427734375,-0.2688446044921875
2023-11-29T21:31:34.811+01:00,3607.11805625,-0.91558837890625,0.4460296630859375,-0.2775421142578125
2023-11-29T21:31:34.831+01:00,3607.13799325,-0.893341064453125,0.4305419921875,-0.2991180419921875
2023-11-29T21:31:34.851+01:00,3607.15793125,-0.8966217041015625,0.413299560546875,-0.3333892822265625
2023-11-29T21:31:34.871+01:00,3607.17786825,-0.9136199951171875,0.372039794921875,-0.3360595703125
2023-11-29T21:31:34.891+01:00,3607.19780525,-0.9192657470703125,0.3609161376953125,-0.35003662109375
2023-11-29T21:31:34.911+01:00,3607.21774225,-0.933380126953125,0.3630828857421875,-0.3652191162109375
2023-11-29T21:31:34.931+01:00,3607.23768025,-0.932647705078125,0.3493499755859375,-0.355987548828125
2023-11-29T21:31:34.950+01:00,3607.25761725,-0.953826904296875,0.32769775390625,-0.3397979736328125
2023-11-29T21:31:34.970+01:00,3607.27755425,-0.9966888427734375,0.321380615234375,-0.3205108642578125
2023-11-29T21:31:34.990+01:00,3607.29749125,-1.020294189453125,0.316925048828125,-0.308258056640625
2023-11-29T21:31:35.010+01:00,3607.31742925,-1.022430419921875,0.314605712890625,-0.2972564697265625
2023-11-29T21:31:35.030+01:00,3607.33736625,-1.025985717773438,0.3136444091796875,-0.300628662109375
2023-11-29T21:31:35.050+01:00,3607.35730325,-1.017135620117188,0.3018341064453125,-0.2905120849609375
2023-11-29T21:31:35.070+01:00,3607.37724025,-0.9960479736328125,0.2783660888671875,-0.28369140625
2023-11-29T21:31:35.090+01:00,3607.39717825,-0.9692230224609375,0.2611236572265625,-0.2714691162109375
2023-11-29T21:31:35.110+01:00,3607.41711525,-0.9485626220703125,0.2615203857421875,-0.2649993896484375
2023-11-29T21:31:35.132+01:00,3607.43705225,-0.937164306640625,0.2674102783203125,-0.26287841796875
2023-11-29T21:31:35.150+01:00,3607.45698925,-0.9358367919921875,0.26104736328125,-0.2573699951171875
2023-11-29T21:31:35.170+01:00,3607.47692725,-0.9347686767578125,0.258514404296875,-0.2488250732421875
2023-11-29T21:31:35.190+01:00,3607.49686425,-0.9385833740234375,0.2606353759765625,-0.2437591552734375
2023-11-29T21:31:35.210+01:00,3607.51680125,-0.944915771484375,0.2705841064453125,-0.24853515625
2023-11-29T21:31:35.230+01:00,3607.53673825,-0.9355621337890625,0.270904541015625,-0.248565673828125
2023-11-29T21:31:35.250+01:00,3607.55667625,-0.9173431396484375,0.2643890380859375,-0.25286865234375
2023-11-29T21:31:35.270+01:00,3607.57661325,-0.901763916015625,0.2501983642578125,-0.256103515625
2023-11-29T21:31:35.290+01:00,3607.59655,-0.8828277587890625,0.2488555908203125,-0.2581329345703125
2023-11-29T21:31:35.310+01:00,3607.616487,-0.8609161376953125,0.2662811279296875,-0.265594482421875
2023-11-29T21:31:35.329+01:00,3607.636425,-0.849945068359375,0.2907562255859375,-0.2765960693359375
2023-11-29T21:31:35.352+01:00,3607.656362,-0.8432464599609375,0.2884521484375,-0.2751617431640625
2023-11-29T21:31:35.370+01:00,3607.676299,-0.8416595458984375,0.286163330078125,-0.2847442626953125
2023-11-29T21:31:35.389+01:00,3607.696236,-0.8584747314453125,0.2955322265625,-0.293701171875
2023-11-29T21:31:35.409+01:00,3607.716174,-0.873046875,0.2935791015625,-0.301544189453125
2023-11-29T21:31:35.429+01:00,3607.736111,-0.8697662353515625,0.28790283203125,-0.3097686767578125
2023-11-29T21:31:35.449+01:00,3607.756048,-0.8662261962890625,0.280029296875,-0.3089752197265625
2023-11-29T21:31:35.469+01:00,3607.775985,-0.85443115234375,0.2820281982421875,-0.3183441162109375
2023-11-29T21:31:35.489+01:00,3607.795923,-0.8472137451171875,0.294921875,-0.3220672607421875
2023-11-29T21:31:35.509+01:00,3607.81586,-0.8465118408203125,0.2998809814453125,-0.3226165771484375
2023-11-29T21:31:35.529+01:00,3607.835797,-0.85369873046875,0.311737060546875,-0.3288421630859375
2023-11-29T21:31:35.549+01:00,3607.855734,-0.8680572509765625,0.329833984375,-0.3397216796875
2023-11-29T21:31:35.569+01:00,3607.875672,-0.8957672119140625,0.3499298095703125,-0.357513427734375
2023-11-29T21:31:35.589+01:00,3607.895609,-0.9159698486328125,0.327606201171875,-0.359222412109375
2023-11-29T21:31:35.609+01:00,3607.915546,-0.9200286865234375,0.3205718994140625,-0.3493499755859375
2023-11-29T21:31:35.629+01:00,3607.935483,-0.9203948974609375,0.3284454345703125,-0.3531646728515625
2023-11-29T21:31:35.648+01:00,3607.955421,-0.9064788818359375,0.3209991455078125,-0.3386993408203125
2023-11-29T21:31:35.669+01:00,3607.975358,-0.8831024169921875,0.315155029296875,-0.3279266357421875
2023-11-29T21:31:35.688+01:00,3607.995295,-0.87542724609375,0.3329925537109375,-0.345001220703125
2023-11-29T21:31:35.708+01:00,3608.015232,-0.886077880859375,0.3852386474609375,-0.361724853515625
2023-11-29T21:31:35.728+01:00,3608.03517,-0.878021240234375,0.3973388671875,-0.3587493896484375
2023-11-29T21:31:35.748+01:00,3608.055107,-0.84588623046875,0.3853302001953125,-0.32464599609375
2023-11-29T21:31:35.768+01:00,3608.075044,-0.793243408203125,0.3901824951171875,-0.3259124755859375
2023-11-29T21:31:35.788+01:00,3608.094981,-0.772552490234375,0.4552764892578125,-0.3465118408203125
2023-11-29T21:31:35.808+01:00,3608.114919,-0.788848876953125,0.5042877197265625,-0.35498046875
2023-11-29T21:31:35.828+01:00,3608.134856,-0.8207855224609375,0.523345947265625,-0.3313446044921875
2023-11-29T21:31:35.848+01:00,3608.154793,-0.878997802734375,0.4954071044921875,-0.33148193359375
2023-11-29T21:31:35.868+01:00,3608.17473,-0.9317626953125,0.5003662109375,-0.320281982421875
2023-11-29T21:31:35.888+01:00,3608.194668,-0.978424072265625,0.49530029296875,-0.336944580078125
2023-11-29T21:31:35.908+01:00,3608.214605,-0.9724273681640625,0.4940185546875,-0.336090087890625
2023-11-29T21:31:35.928+01:00,3608.234542,-0.9509124755859375,0.4686737060546875,-0.344818115234375
2023-11-29T21:31:35.947+01:00,3608.254479,-0.93267822265625,0.4070281982421875,-0.317840576171875
2023-11-29T21:31:35.967+01:00,3608.274417,-0.9120635986328125,0.446258544921875,-0.2872161865234375
2023-11-29T21:31:35.987+01:00,3608.294354,-0.8973388671875,0.4190521240234375,-0.2886962890625
2023-11-29T21:31:36.007+01:00,3608.314291,-0.8728179931640625,0.41192626953125,-0.2950897216796875
2023-11-29T21:31:36.027+01:00,3608.334228,-0.81890869140625,0.3537445068359375,-0.2949981689453125
2023-11-29T21:31:36.047+01:00,3608.354166,-0.7633209228515625,0.32916259765625,-0.3113250732421875
2023-11-29T21:31:36.067+01:00,3608.374103,-0.70843505859375,0.350372314453125,-0.3397369384765625
2023-11-29T21:31:36.087+01:00,3608.39404,-0.698638916015625,0.4646148681640625,-0.4113616943359375
2023-11-29T21:31:36.107+01:00,3608.413977,-0.71490478515625,0.530059814453125,-0.451568603515625
2023-11-29T21:31:36.127+01:00,3608.433915,-0.7653045654296875,0.5899200439453125,-0.593017578125
2023-11-29T21:31:36.147+01:00,3608.453852,-0.8756256103515625,0.751922607421875,-0.663665771484375
2023-11-29T21:31:36.167+01:00,3608.473789,-0.880157470703125,0.77386474609375,-0.7450103759765625
2023-11-29T21:31:36.187+01:00,3608.493726,-0.8599700927734375,0.80810546875,-0.8481903076171875
2023-11-29T21:31:36.207+01:00,3608.513664,-0.7855682373046875,0.8177947998046875,-0.8631134033203125
2023-11-29T21:31:36.227+01:00,3608.533601,-0.7003021240234375,0.64947509765625,-0.867401123046875
2023-11-29T21:31:36.247+01:00,3608.553538,-0.653900146484375,0.5823974609375,-0.81170654296875
2023-11-29T21:31:36.266+01:00,3608.573475,-0.6343994140625,0.7236785888671875,-0.803741455078125
2023-11-29T21:31:36.286+01:00,3608.593412875,-0.5903472900390625,0.8444366455078125,-0.7858734130859375
2023-11-29T21:31:36.306+01:00,3608.613349875,-0.65277099609375,0.8037872314453125,-0.713592529296875
2023-11-29T21:31:36.326+01:00,3608.633286875,-0.59295654296875,0.6552581787109375,-0.680389404296875
2023-11-29T21:31:36.346+01:00,3608.653223875,-0.5129852294921875,0.6414031982421875,-0.5650787353515625
2023-11-29T21:31:36.366+01:00,3608.673161875,-0.4619598388671875,0.5688629150390625,-0.4585418701171875
2023-11-29T21:31:36.386+01:00,3608.693098875,-0.390350341796875,0.5477447509765625,-0.4348602294921875
2023-11-29T21:31:36.406+01:00,3608.713035875,-0.3473968505859375,0.4978790283203125,-0.393585205078125
2023-11-29T21:31:36.426+01:00,3608.732972875,-0.3262939453125,0.4251708984375,-0.309478759765625
2023-11-29T21:31:36.446+01:00,3608.752910875,-0.2839508056640625,0.3283843994140625,-0.2237701416015625
2023-11-29T21:31:36.466+01:00,3608.772847875,-0.1928558349609375,0.302886962890625,-0.181427001953125
2023-11-29T21:31:36.486+01:00,3608.792784875,-0.1307525634765625,0.2931365966796875,-0.153656005859375
2023-11-29T21:31:36.506+01:00,3608.812721875,-0.08544921875,0.3403778076171875,-0.125640869140625
2023-11-29T21:31:36.526+01:00,3608.832659875,-0.0426025390625,0.3477783203125,-0.11785888671875
2023-11-29T21:31:36.546+01:00,3608.852596875,-0.0629425048828125,0.429290771484375,-0.1115875244140625
2023-11-29T21:31:36.566+01:00,3608.872533875,-0.135406494140625,0.4825286865234375,-0.122528076171875
2023-11-29T21:31:36.585+01:00,3608.892470875,-0.2188262939453125,0.5103607177734375,-0.12176513671875
2023-11-29T21:31:36.605+01:00,3608.912408875,-0.327789306640625,0.4591522216796875,-0.16033935546875
2023-11-29T21:31:36.625+01:00,3608.932345875,-0.4929046630859375,0.4853515625,-0.224334716796875
2023-11-29T21:31:36.645+01:00,3608.952282875,-0.7852630615234375,0.606719970703125,-0.2191619873046875
2023-11-29T21:31:36.665+01:00,3608.972219875,-1.30517578125,0.7757568359375,-0.2054595947265625
2023-11-29T21:31:36.685+01:00,3608.992157875,-1.66259765625,0.723724365234375,-0.25396728515625
2023-11-29T21:31:36.705+01:00,3609.012094875,-1.667434692382812,0.3321685791015625,-0.3994598388671875
2023-11-29T21:31:36.725+01:00,3609.032031875,-1.454055786132812,0.26422119140625,-0.7789764404296875
2023-11-29T21:31:36.745+01:00,3609.051968875,-1.238632202148438,0.2506866455078125,-1.029983520507812
2023-11-29T21:31:36.765+01:00,3609.071906875,-1.019622802734375,-0.130615234375,-0.84417724609375
2023-11-29T21:31:36.785+01:00,3609.091843875,-0.93048095703125,-0.037872314453125,-0.91265869140625
2023-11-29T21:31:36.805+01:00,3609.111780875,-0.9984588623046875,0.072113037109375,-0.9080047607421875
2023-11-29T21:31:36.825+01:00,3609.131717875,-0.9934539794921875,-0.239227294921875,-0.8187713623046875
2023-11-29T21:31:36.845+01:00,3609.151655875,-1.060394287109375,-0.1923828125,-0.7056732177734375
2023-11-29T21:31:36.865+01:00,3609.171592875,-1.288299560546875,-0.013641357421875,-0.9146881103515625
2023-11-29T21:31:36.885+01:00,3609.191529875,-1.651290893554688,0.294525146484375,-1.422134399414062
2023-11-29T21:31:36.904+01:00,3609.211466875,-1.621490478515625,0.07611083984375,-0.4215087890625
2023-11-29T21:31:36.924+01:00,3609.231404875,-1.484329223632812,0.5665435791015625,-0.2521209716796875
2023-11-29T21:31:36.944+01:00,3609.251341875,-1.45941162109375,0.6142425537109375,-0.1235809326171875
2023-11-29T21:31:36.964+01:00,3609.271278875,-1.472091674804688,0.5202789306640625,-0.1433258056640625
2023-11-29T21:31:36.984+01:00,3609.291215875,-1.369232177734375,0.3233795166015625,-0.029510498046875
2023-11-29T21:31:37.004+01:00,3609.311153875,-1.250564575195312,0.2151947021484375,0.143157958984375
2023-11-29T21:31:37.024+01:00,3609.331090875,-1.188079833984375,0.1457366943359375,0.2271575927734375
2023-11-29T21:31:37.044+01:00,3609.351027875,-1.160934448242188,0.1507415771484375,0.2449493408203125
2023-11-29T21:31:37.064+01:00,3609.370964875,-1.135848999023438,0.1233978271484375,0.2075042724609375
2023-11-29T21:31:37.084+01:00,3609.390902875,-1.170608520507812,0.1333770751953125,0.19134521484375
2023-11-29T21:31:37.104+01:00,3609.410839875,-1.163803100585938,0.152496337890625,0.1246337890625
2023-11-29T21:31:37.124+01:00,3609.430776875,-1.118377685546875,0.2053680419921875,0.1385345458984375
2023-11-29T21:31:37.144+01:00,3609.450713875,-1.12127685546875,0.1733551025390625,0.0540924072265625
2023-11-29T21:31:37.164+01:00,3609.470651875,-1.141525268554688,0.21221923828125,-0.0080108642578125
2023-11-29T21:31:37.183+01:00,3609.490588875,-1.116500854492188,0.162567138671875,-0.082366943359375
2023-11-29T21:31:37.203+01:00,3609.510525875,-1.12384033203125,0.1573638916015625,-0.1138763427734375
2023-11-29T21:31:37.223+01:00,3609.530462875,-1.179000854492188,0.100921630859375,-0.1525726318359375
2023-11-29T21:31:37.243+01:00,3609.550400875,-1.185836791992188,0.1784820556640625,-0.213775634765625
2023-11-29T21:31:37.264+01:00,3609.570337875,-1.20147705078125,0.299468994140625,-0.21392822265625
2023-11-29T21:31:37.283+01:00,3609.590274875,-1.257614135742188,0.3045806884765625,-0.2542877197265625
2023-11-29T21:31:37.303+01:00,3609.610211625,-1.258224487304688,0.3826904296875,-0.2914886474609375
2023-11-29T21:31:37.323+01:00,3609.630149625,-1.266220092773438,0.38726806640625,-0.297271728515625
2023-11-29T21:31:37.343+01:00,3609.650086625,-1.228927612304688,0.3484954833984375,-0.28363037109375
2023-11-29T21:31:37.363+01:00,3609.670023625,-1.209197998046875,0.3995819091796875,-0.2893829345703125
2023-11-29T21:31:37.383+01:00,3609.689960625,-1.190048217773438,0.4107818603515625,-0.2783050537109375
2023-11-29T21:31:37.403+01:00,3609.709898625,-1.14447021484375,0.36932373046875,-0.240264892578125
2023-11-29T21:31:37.423+01:00,3609.729835625,-1.128799438476562,0.3937835693359375,-0.2353973388671875
2023-11-29T21:31:37.443+01:00,3609.749772625,-1.079849243164062,0.3774871826171875,-0.2048187255859375
2023-11-29T21:31:37.463+01:00,3609.769709625,-1.0260009765625,0.345001220703125,-0.183563232421875
2023-11-29T21:31:37.483+01:00,3609.789647625,-0.98370361328125,0.3859710693359375,-0.1671905517578125
2023-11-29T21:31:37.503+01:00,3609.809584625,-0.9861297607421875,0.3913421630859375,-0.15972900390625
2023-11-29T21:31:37.523+01:00,3609.829521625,-1.009902954101562,0.44927978515625,-0.169403076171875
2023-11-29T21:31:37.542+01:00,3609.849459625,-1.0621337890625,0.5026702880859375,-0.142181396484375
2023-11-29T21:31:37.562+01:00,3609.869396625,-1.097564697265625,0.5337677001953125,-0.091400146484375
2023-11-29T21:31:37.582+01:00,3609.889333625,-1.1226806640625,0.5874176025390625,-0.0483551025390625
2023-11-29T21:31:37.602+01:00,3609.909270625,-1.091598510742188,0.61376953125,-0.0517578125
2023-11-29T21:31:37.622+01:00,3609.929207625,-1.005111694335938,0.580718994140625,-0.03546142578125
2023-11-29T21:31:37.642+01:00,3609.949145625,-0.895843505859375,0.4474945068359375,-0.080291748046875
2023-11-29T21:31:37.662+01:00,3609.969082625,-0.8779144287109375,0.2977294921875,-0.130767822265625
2023-11-29T21:31:37.682+01:00,3609.989019625,-0.8603363037109375,0.199127197265625,-0.1581878662109375
2023-11-29T21:31:37.702+01:00,3610.008957625,-0.80633544921875,0.179168701171875,-0.1529998779296875
2023-11-29T21:31:37.722+01:00,3610.028894625,-0.73980712890625,0.26519775390625,-0.1666259765625
2023-11-29T21:31:37.742+01:00,3610.048831625,-0.691925048828125,0.37664794921875,-0.207550048828125
2023-11-29T21:31:37.762+01:00,3610.068768625,-0.688446044921875,0.5184478759765625,-0.2475433349609375
2023-11-29T21:31:37.782+01:00,3610.088705625,-0.720062255859375,0.55645751953125,-0.3174896240234375
2023-11-29T21:31:37.802+01:00,3610.108643625,-0.7520599365234375,0.518646240234375,-0.379119873046875
2023-11-29T21:31:37.822+01:00,3610.128580625,-0.80615234375,0.483856201171875,-0.47650146484375
2023-11-29T21:31:37.842+01:00,3610.148517625,-0.8401947021484375,0.416900634765625,-0.50921630859375
2023-11-29T21:31:37.861+01:00,3610.168454625,-0.839630126953125,0.3722381591796875,-0.5430145263671875
2023-11-29T21:31:37.882+01:00,3610.188392625,-0.81927490234375,0.3934173583984375,-0.5569305419921875
2023-11-29T21:31:37.901+01:00,3610.208329625,-0.8387908935546875,0.4072265625,-0.555633544921875
2023-11-29T21:31:37.921+01:00,3610.228266625,-0.8684539794921875,0.4275970458984375,-0.5991058349609375
2023-11-29T21:31:37.941+01:00,3610.248204625,-0.8841094970703125,0.386566162109375,-0.63519287109375
2023-11-29T21:31:37.961+01:00,3610.268141625,-0.9413909912109375,0.308990478515625,-0.693267822265625
2023-11-29T21:31:37.981+01:00,3610.288078625,-0.9166107177734375,0.2303619384765625,-0.784393310546875
2023-11-29T21:31:38.001+01:00,3610.308015625,-0.9882965087890625,0.1547393798828125,-0.7384185791015625
2023-11-29T21:31:38.021+01:00,3610.327953625,-1.034317016601562,0.0678863525390625,-0.661865234375
2023-11-29T21:31:38.041+01:00,3610.347890625,-1.02069091796875,0.091461181640625,-0.54632568359375
2023-11-29T21:31:38.061+01:00,3610.367827625,-0.994140625,0.17047119140625,-0.4492950439453125
2023-11-29T21:31:38.081+01:00,3610.387764625,-0.948486328125,0.2236785888671875,-0.3953399658203125
2023-11-29T21:31:38.101+01:00,3610.407702625,-0.9140472412109375,0.16986083984375,-0.34375
2023-11-29T21:31:38.121+01:00,3610.427639625,-0.891265869140625,0.16748046875,-0.319091796875
2023-11-29T21:31:38.141+01:00,3610.447576625,-0.8541412353515625,0.21148681640625,-0.3054656982421875
2023-11-29T21:31:38.161+01:00,3610.467513625,-0.8436279296875,0.2539825439453125,-0.336578369140625
2023-11-29T21:31:38.180+01:00,3610.487451625,-0.8186187744140625,0.31976318359375,-0.3372802734375
2023-11-29T21:31:38.200+01:00,3610.507388625,-0.8207244873046875,0.3009796142578125,-0.3486480712890625
2023-11-29T21:31:38.220+01:00,3610.527325625,-0.826019287109375,0.26165771484375,-0.343292236328125
2023-11-29T21:31:38.240+01:00,3610.547262625,-0.8360443115234375,0.2687835693359375,-0.3208465576171875
2023-11-29T21:31:38.260+01:00,3610.567200625,-0.8580322265625,0.2724151611328125,-0.2897186279296875
2023-11-29T21:31:38.280+01:00,3610.587137625,-0.8721771240234375,0.2589569091796875,-0.255126953125
2023-11-29T21:31:38.300+01:00,3610.607076,-0.8484344482421875,0.238677978515625,-0.21649169921875
2023-11-29T21:31:38.320+01:00,3610.627013,-0.80096435546875,0.22125244140625,-0.180877685546875
2023-11-29T21:31:38.340+01:00,3610.646951,-0.75799560546875,0.1964569091796875,-0.137420654296875
2023-11-29T21:31:38.360+01:00,3610.666888,-0.7238616943359375,0.1815185546875,-0.095489501953125
2023-11-29T21:31:38.380+01:00,3610.686825,-0.70367431640625,0.1656646728515625,-0.0645599365234375
2023-11-29T21:31:38.400+01:00,3610.706762,-0.6909332275390625,0.166107177734375,-0.0363922119140625
2023-11-29T21:31:38.420+01:00,3610.7267,-0.7355499267578125,0.1692657470703125,-0.0396728515625
2023-11-29T21:31:38.440+01:00,3610.746637,-0.825164794921875,0.1998138427734375,-0.0539703369140625
2023-11-29T21:31:38.460+01:00,3610.766574,-0.95928955078125,0.2495880126953125,-0.072662353515625
2023-11-29T21:31:38.480+01:00,3610.786511,-1.0830078125,0.2996826171875,-0.10546875
2023-11-29T21:31:38.499+01:00,3610.806449,-1.201080322265625,0.3745880126953125,-0.1657562255859375
2023-11-29T21:31:38.519+01:00,3610.826386,-1.331085205078125,0.4764404296875,-0.2263946533203125
2023-11-29T21:31:38.539+01:00,3610.846323,-1.407302856445312,0.50335693359375,-0.2945556640625
2023-11-29T21:31:38.559+01:00,3610.86626,-1.383834838867188,0.475250244140625,-0.3373870849609375
2023-11-29T21:31:38.579+01:00,3610.886198,-1.3072509765625,0.434722900390625,-0.3225860595703125
2023-11-29T21:31:38.599+01:00,3610.906135,-1.229034423828125,0.414947509765625,-0.33660888671875
2023-11-29T21:31:38.619+01:00,3610.926072,-1.123184204101562,0.4741363525390625,-0.3824310302734375
2023-11-29T21:31:38.639+01:00,3610.946009,-1.020111083984375,0.492584228515625,-0.4010162353515625
2023-11-29T21:31:38.659+01:00,3610.965947,-0.95941162109375,0.4676666259765625,-0.411834716796875
2023-11-29T21:31:38.679+01:00,3610.985884,-0.9332275390625,0.4245147705078125,-0.445831298828125
2023-11-29T21:31:38.699+01:00,3611.005821,-0.92266845703125,0.3618927001953125,-0.475250244140625
2023-11-29T21:31:38.719+01:00,3611.025758,-0.9178314208984375,0.3422088623046875,-0.520751953125
2023-11-29T21:31:38.739+01:00,3611.045696,-0.9552459716796875,0.395751953125,-0.577667236328125
2023-11-29T21:31:38.759+01:00,3611.065633,-1.019378662109375,0.406097412109375,-0.6028289794921875
2023-11-29T21:31:38.779+01:00,3611.08557,-1.078582763671875,0.4482879638671875,-0.6204986572265625
2023-11-29T21:31:38.798+01:00,3611.105507,-1.115402221679688,0.4303741455078125,-0.607757568359375
2023-11-29T21:31:38.818+01:00,3611.125445,-1.13580322265625,0.432861328125,-0.595672607421875
2023-11-29T21:31:38.838+01:00,3611.145382,-1.127471923828125,0.4624176025390625,-0.6012115478515625
2023-11-29T21:31:38.858+01:00,3611.165319,-1.079757690429688,0.5074310302734375,-0.588714599609375
2023-11-29T21:31:38.878+01:00,3611.185256,-0.9534149169921875,0.501953125,-0.53143310546875
2023-11-29T21:31:38.898+01:00,3611.205194,-0.80426025390625,0.4668121337890625,-0.48284912109375
2023-11-29T21:31:38.918+01:00,3611.225131,-0.693695068359375,0.406982421875,-0.4292755126953125
2023-11-29T21:31:38.938+01:00,3611.245068,-0.6613922119140625,0.379669189453125,-0.3952178955078125
2023-11-29T21:31:38.958+01:00,3611.265005,-0.6982421875,0.33502197265625,-0.3895416259765625
2023-11-29T21:31:38.978+01:00,3611.284943,-0.7653350830078125,0.3026275634765625,-0.3733978271484375
2023-11-29T21:31:38.998+01:00,3611.30488,-0.8484954833984375,0.2767181396484375,-0.3453826904296875
2023-11-29T21:31:39.018+01:00,3611.324817,-0.9206085205078125,0.2707366943359375,-0.3205413818359375
2023-11-29T21:31:39.038+01:00,3611.344754,-1.002273559570312,0.273529052734375,-0.3043212890625
2023-11-29T21:31:39.058+01:00,3611.364692,-1.07183837890625,0.2816314697265625,-0.27178955078125
2023-11-29T21:31:39.078+01:00,3611.384629,-1.100296020507812,0.278045654296875,-0.2363128662109375
2023-11-29T21:31:39.098+01:00,3611.404566,-1.083328247070312,0.26239013671875,-0.205047607421875
2023-11-29T21:31:39.118+01:00,3611.424503,-1.078521728515625,0.24920654296875,-0.178192138671875
2023-11-29T21:31:39.137+01:00,3611.444441,-1.110488891601562,0.2122955322265625,-0.1436920166015625
2023-11-29T21:31:39.157+01:00,3611.464378,-1.090911865234375,0.1267547607421875,-0.0804901123046875
2023-11-29T21:31:39.177+01:00,3611.484315,-0.9995880126953125,-0.012847900390625,-0.011444091796875
2023-11-29T21:31:39.197+01:00,3611.504252,-0.9833984375,-0.1123199462890625,-0.058135986328125
2023-11-29T21:31:39.217+01:00,3611.52419,-0.9891357421875,-0.1294403076171875,-0.0679473876953125
2023-11-29T21:31:39.237+01:00,3611.544127,-0.960906982421875,-0.207489013671875,-0.0601348876953125
2023-11-29T21:31:39.257+01:00,3611.564064,-0.9246978759765625,-0.2094879150390625,-0.090118408203125
2023-11-29T21:31:39.277+01:00,3611.584001,-0.9368743896484375,-0.146514892578125,-0.1779022216796875
2023-11-29T21:31:39.297+01:00,3611.603938791667,-0.9331512451171875,-0.0569915771484375,-0.250885009765625
2023-11-29T21:31:39.317+01:00,3611.623875791667,-0.948028564453125,0.0240020751953125,-0.280029296875
2023-11-29T21:31:39.337+01:00,3611.643812791667,-0.95098876953125,0.07769775390625,-0.271331787109375
2023-11-29T21:31:39.357+01:00,3611.663749791667,-0.911712646484375,0.0972900390625,-0.3071136474609375
2023-11-29T21:31:39.377+01:00,3611.683687791667,-0.908721923828125,0.2309417724609375,-0.3845062255859375
2023-11-29T21:31:39.397+01:00,3611.703624791667,-0.88128662109375,0.282806396484375,-0.5004730224609375
2023-11-29T21:31:39.417+01:00,3611.723561791667,-0.80865478515625,0.1884918212890625,-0.4805755615234375
2023-11-29T21:31:39.436+01:00,3611.743498791667,-0.83697509765625,0.03143310546875,-0.375152587890625
2023-11-29T21:31:39.456+01:00,3611.763436791667,-0.840667724609375,-0.0059967041015625,-0.333740234375
2023-11-29T21:31:39.476+01:00,3611.783373791667,-0.8870391845703125,0.0431976318359375,-0.3237762451171875
2023-11-29T21:31:39.496+01:00,3611.803310791667,-0.9265289306640625,0.1994476318359375,-0.3084716796875
2023-11-29T21:31:39.516+01:00,3611.823247791667,-0.9725494384765625,0.266998291015625,-0.3384552001953125
2023-11-29T21:31:39.536+01:00,3611.843185791667,-0.9616241455078125,0.3729705810546875,-0.357025146484375
2023-11-29T21:31:39.556+01:00,3611.863122791667,-0.99237060546875,0.51812744140625,-0.4734954833984375
2023-11-29T21:31:39.576+01:00,3611.883059791667,-0.9737091064453125,0.35009765625,-0.390106201171875
2023-11-29T21:31:39.596+01:00,3611.902996791667,-0.916229248046875,0.1563568115234375,-0.372039794921875
2023-11-29T21:31:39.616+01:00,3611.922933791667,-0.8546295166015625,0.12823486328125,-0.42828369140625
2023-11-29T21:31:39.636+01:00,3611.942871791667,-0.859344482421875,0.23944091796875,-0.481231689453125
2023-11-29T21:31:39.656+01:00,3611.962808791667,-0.78875732421875,0.2787628173828125,-0.4997406005859375
2023-11-29T21:31:39.676+01:00,3611.982745791667,-0.7803955078125,0.2739715576171875,-0.500885009765625
2023-11-29T21:31:39.696+01:00,3612.002682791667,-0.7750396728515625,0.2961883544921875,-0.4980316162109375
2023-11-29T21:31:39.716+01:00,3612.022620791667,-0.787506103515625,0.3265533447265625,-0.511749267578125
2023-11-29T21:31:39.736+01:00,3612.042557791667,-0.7809906005859375,0.347198486328125,-0.5009002685546875
2023-11-29T21:31:39.755+01:00,3612.062494791667,-0.761322021484375,0.3503265380859375,-0.49639892578125
2023-11-29T21:31:39.775+01:00,3612.082431791667,-0.7462310791015625,0.4045257568359375,-0.510772705078125
2023-11-29T21:31:39.796+01:00,3612.102369791667,-0.7545928955078125,0.43353271484375,-0.497222900390625
2023-11-29T21:31:39.815+01:00,3612.122306791667,-0.741912841796875,0.43194580078125,-0.4741973876953125
2023-11-29T21:31:39.835+01:00,3612.142243791667,-0.751007080078125,0.39398193359375,-0.453826904296875
2023-11-29T21:31:39.855+01:00,3612.162180791667,-0.78778076171875,0.410736083984375,-0.42828369140625
2023-11-29T21:31:39.880+01:00,3612.182118791667,-0.8598480224609375,0.489349365234375,-0.3744354248046875
2023-11-29T21:31:39.898+01:00,3612.202055791667,-0.9196929931640625,0.4718780517578125,-0.371063232421875
2023-11-29T21:31:39.916+01:00,3612.221992791667,-0.930084228515625,0.4008331298828125,-0.372039794921875
2023-11-29T21:31:39.935+01:00,3612.241929791667,-0.953887939453125,0.3830413818359375,-0.34613037109375
2023-11-29T21:31:39.955+01:00,3612.261867791667,-0.93731689453125,0.378631591796875,-0.3122406005859375
2023-11-29T21:31:39.974+01:00,3612.281804791667,-0.8978118896484375,0.3694610595703125,-0.2942047119140625
2023-11-29T21:31:39.995+01:00,3612.301741791667,-0.8798675537109375,0.3715972900390625,-0.26806640625
2023-11-29T21:31:40.014+01:00,3612.321678791667,-0.8782501220703125,0.3829803466796875,-0.25201416015625
2023-11-29T21:31:40.034+01:00,3612.341616791667,-0.867340087890625,0.411773681640625,-0.2274017333984375
2023-11-29T21:31:40.054+01:00,3612.361553791667,-0.8357696533203125,0.4155731201171875,-0.2008209228515625
2023-11-29T21:31:40.074+01:00,3612.381490791667,-0.838287353515625,0.44854736328125,-0.231170654296875
2023-11-29T21:31:40.094+01:00,3612.401427791667,-0.9026031494140625,0.4691314697265625,-0.2642059326171875
2023-11-29T21:31:40.115+01:00,3612.421365791667,-0.9842987060546875,0.4998626708984375,-0.281036376953125
2023-11-29T21:31:40.135+01:00,3612.441302791667,-1.047470092773438,0.4957122802734375,-0.279296875
2023-11-29T21:31:40.154+01:00,3612.461239791667,-1.0701904296875,0.440643310546875,-0.227325439453125
2023-11-29T21:31:40.174+01:00,3612.481176791667,-1.060043334960938,0.3905487060546875,-0.1837158203125
2023-11-29T21:31:40.194+01:00,3612.501114791667,-1.01629638671875,0.44586181640625,-0.1776885986328125
2023-11-29T21:31:40.214+01:00,3612.521051791667,-0.9299468994140625,0.452850341796875,-0.15716552734375
2023-11-29T21:31:40.234+01:00,3612.540988791667,-0.838134765625,0.432403564453125,-0.1447906494140625
2023-11-29T21:31:40.254+01:00,3612.560925791667,-0.8299102783203125,0.4160919189453125,-0.1434173583984375
2023-11-29T21:31:40.274+01:00,3612.580863791667,-0.8711395263671875,0.423858642578125,-0.1630706787109375
2023-11-29T21:31:40.294+01:00,3612.600800416667,-0.8888702392578125,0.4312744140625,-0.19439697265625
2023-11-29T21:31:40.315+01:00,3612.620737416667,-0.8861846923828125,0.3808746337890625,-0.1826324462890625
2023-11-29T21:31:40.334+01:00,3612.640674416667,-0.905670166015625,0.357269287109375,-0.2024993896484375
2023-11-29T21:31:40.354+01:00,3612.660612416667,-0.919464111328125,0.3621673583984375,-0.23095703125
2023-11-29T21:31:40.374+01:00,3612.680549416667,-0.926116943359375,0.384185791015625,-0.2395782470703125
2023-11-29T21:31:40.393+01:00,3612.700486416667,-0.942047119140625,0.418426513671875,-0.2368011474609375
2023-11-29T21:31:40.413+01:00,3612.720423416667,-0.9593048095703125,0.4254913330078125,-0.215545654296875
2023-11-29T21:31:40.433+01:00,3612.740360416667,-0.9882659912109375,0.43585205078125,-0.200836181640625
2023-11-29T21:31:40.453+01:00,3612.760298416667,-0.9738311767578125,0.4173431396484375,-0.1781158447265625
2023-11-29T21:31:40.473+01:00,3612.780235416667,-0.9324798583984375,0.39208984375,-0.1753997802734375
2023-11-29T21:31:40.493+01:00,3612.800172416667,-0.942108154296875,0.3660888671875,-0.179840087890625
2023-11-29T21:31:40.513+01:00,3612.820109416667,-0.9683990478515625,0.3763275146484375,-0.1907196044921875
2023-11-29T21:31:40.533+01:00,3612.840047416667,-0.980621337890625,0.3553466796875,-0.1980438232421875
2023-11-29T21:31:40.553+01:00,3612.859984416667,-0.9868927001953125,0.358856201171875,-0.204376220703125
2023-11-29T21:31:40.573+01:00,3612.879921416667,-0.986907958984375,0.3943328857421875,-0.2180633544921875
2023-11-29T21:31:40.593+01:00,3612.899858416667,-0.9756317138671875,0.39825439453125,-0.23138427734375
2023-11-29T21:31:40.613+01:00,3612.919796416667,-0.97296142578125,0.4210357666015625,-0.2499542236328125
2023-11-29T21:31:40.633+01:00,3612.939733416667,-0.9817352294921875,0.4026336669921875,-0.266021728515625
2023-11-29T21:31:40.653+01:00,3612.959670416667,-0.991302490234375,0.3900604248046875,-0.2892303466796875
2023-11-29T21:31:40.673+01:00,3612.979607416667,-0.989410400390625,0.376556396484375,-0.29302978515625
2023-11-29T21:31:40.693+01:00,3612.999545416667,-0.9658660888671875,0.3454437255859375,-0.28936767578125
2023-11-29T21:31:40.713+01:00,3613.019482416667,-0.941131591796875,0.328765869140625,-0.297119140625
2023-11-29T21:31:40.732+01:00,3613.039419416667,-0.94964599609375,0.3196258544921875,-0.2955780029296875
2023-11-29T21:31:40.752+01:00,3613.059356416667,-0.955535888671875,0.31640625,-0.2942962646484375
2023-11-29T21:31:40.772+01:00,3613.079294416667,-0.9503326416015625,0.3007354736328125,-0.288055419921875
2023-11-29T21:31:40.792+01:00,3613.099231416667,-0.95977783203125,0.3029937744140625,-0.285308837890625
2023-11-29T21:31:40.812+01:00,3613.119168416667,-0.9828033447265625,0.314453125,-0.29608154296875
2023-11-29T21:31:40.832+01:00,3613.139105416667,-0.9839935302734375,0.3170928955078125,-0.2997894287109375
2023-11-29T21:31:40.852+01:00,3613.159043416667,-0.9708251953125,0.313232421875,-0.307037353515625
2023-11-29T21:31:40.872+01:00,3613.178980416667,-0.9642791748046875,0.3013763427734375,-0.317718505859375
2023-11-29T21:31:40.892+01:00,3613.198917416667,-0.969482421875,0.298980712890625,-0.320648193359375
2023-11-29T21:31:40.912+01:00,3613.218854416667,-0.9532318115234375,0.28564453125,-0.3190460205078125
2023-11-29T21:31:40.932+01:00,3613.238792416667,-0.93792724609375,0.2791290283203125,-0.3151092529296875
2023-11-29T21:31:40.952+01:00,3613.258729416667,-0.9322052001953125,0.2684783935546875,-0.3084716796875
2023-11-29T21:31:40.972+01:00,3613.278666416667,-0.928375244140625,0.2586517333984375,-0.29656982421875
2023-11-29T21:31:40.992+01:00,3613.298603416667,-0.918182373046875,0.249114990234375,-0.28448486328125
2023-11-29T21:31:41.012+01:00,3613.318540416667,-0.9070281982421875,0.23736572265625,-0.2673797607421875
2023-11-29T21:31:41.031+01:00,3613.338478416667,-0.8897552490234375,0.220367431640625,-0.250030517578125
2023-11-29T21:31:41.051+01:00,3613.358415416667,-0.859710693359375,0.2205810546875,-0.2360076904296875
2023-11-29T21:31:41.071+01:00,3613.378352416667,-0.83453369140625,0.2206878662109375,-0.2336273193359375
2023-11-29T21:31:41.091+01:00,3613.398289416667,-0.823760986328125,0.2383880615234375,-0.2414093017578125
2023-11-29T21:31:41.111+01:00,3613.418227416667,-0.8172607421875,0.252685546875,-0.242431640625
2023-11-29T21:31:41.131+01:00,3613.438164416667,-0.8204498291015625,0.2513427734375,-0.2470550537109375
2023-11-29T21:31:41.151+01:00,3613.458101416667,-0.8269500732421875,0.2681121826171875,-0.2575836181640625
2023-11-29T21:31:41.171+01:00,3613.478038416667,-0.82818603515625,0.27716064453125,-0.2683563232421875
2023-11-29T21:31:41.191+01:00,3613.497976416667,-0.8458709716796875,0.2964019775390625,-0.2794952392578125
2023-11-29T21:31:41.211+01:00,3613.517913416667,-0.86419677734375,0.31512451171875,-0.28448486328125
2023-11-29T21:31:41.231+01:00,3613.537850416667,-0.866363525390625,0.3223724365234375,-0.2951507568359375
2023-11-29T21:31:41.251+01:00,3613.557787416667,-0.8773040771484375,0.3321380615234375,-0.3165130615234375
2023-11-29T21:31:41.271+01:00,3613.577725416667,-0.90130615234375,0.342620849609375,-0.3361053466796875
2023-11-29T21:31:41.291+01:00,3613.597662416667,-0.9041748046875,0.346954345703125,-0.3432769775390625
2023-11-29T21:31:41.311+01:00,3613.61759975,-0.9049224853515625,0.3603057861328125,-0.3376617431640625
2023-11-29T21:31:41.330+01:00,3613.63753675,-0.9108734130859375,0.3477935791015625,-0.3246917724609375
2023-11-29T21:31:41.350+01:00,3613.65747475,-0.912139892578125,0.36151123046875,-0.3303985595703125
2023-11-29T21:31:41.370+01:00,3613.67741175,-0.9312286376953125,0.3646697998046875,-0.3308563232421875
2023-11-29T21:31:41.390+01:00,3613.69734875,-0.948150634765625,0.334625244140625,-0.3179168701171875
2023-11-29T21:31:41.410+01:00,3613.71728575,-0.95806884765625,0.2876129150390625,-0.307708740234375
2023-11-29T21:31:41.430+01:00,3613.73722375,-0.9727630615234375,0.2587432861328125,-0.30548095703125
2023-11-29T21:31:41.450+01:00,3613.75716075,-0.9815826416015625,0.2763671875,-0.318603515625
2023-11-29T21:31:41.470+01:00,3613.77709775,-0.9800262451171875,0.2694244384765625,-0.3275299072265625
2023-11-29T21:31:41.490+01:00,3613.79703475,-0.9617462158203125,0.2705841064453125,-0.323760986328125
2023-11-29T21:31:41.510+01:00,3613.81697275,-0.95208740234375,0.2910003662109375,-0.3308868408203125
2023-11-29T21:31:41.530+01:00,3613.83690975,-0.934844970703125,0.3130950927734375,-0.3311309814453125
2023-11-29T21:31:41.550+01:00,3613.85684675,-0.9393463134765625,0.3454742431640625,-0.3447723388671875
2023-11-29T21:31:41.570+01:00,3613.87678375,-0.9330902099609375,0.3639984130859375,-0.34112548828125
2023-11-29T21:31:41.590+01:00,3613.89672175,-0.93035888671875,0.3722076416015625,-0.3383331298828125
2023-11-29T21:31:41.610+01:00,3613.91665875,-0.894439697265625,0.37725830078125,-0.340911865234375
2023-11-29T21:31:41.630+01:00,3613.93659575,-0.865631103515625,0.358245849609375,-0.3325653076171875
2023-11-29T21:31:41.649+01:00,3613.95653275,-0.863555908203125,0.370361328125,-0.345458984375
2023-11-29T21:31:41.669+01:00,3613.97646975,-0.86126708984375,0.3590545654296875,-0.3492584228515625
2023-11-29T21:31:41.689+01:00,3613.99640775,-0.8445587158203125,0.3474884033203125,-0.3429412841796875
2023-11-29T21:31:41.710+01:00,3614.01634475,-0.8570709228515625,0.3270416259765625,-0.331390380859375
2023-11-29T21:31:41.729+01:00,3614.03628175,-0.873016357421875,0.3288726806640625,-0.32061767578125
2023-11-29T21:31:41.749+01:00,3614.05621875,-0.8993377685546875,0.32635498046875,-0.3125762939453125
2023-11-29T21:31:41.769+01:00,3614.07615675,-0.919464111328125,0.3232421875,-0.2999267578125
2023-11-29T21:31:41.789+01:00,3614.09609375,-0.941314697265625,0.32373046875,-0.2904052734375
2023-11-29T21:31:41.809+01:00,3614.11603075,-0.9551849365234375,0.317962646484375,-0.282684326171875
2023-11-29T21:31:41.829+01:00,3614.13596775,-0.972412109375,0.3234710693359375,-0.2807769775390625
2023-11-29T21:31:41.849+01:00,3614.15590575,-0.9813690185546875,0.3166351318359375,-0.2741241455078125
2023-11-29T21:31:41.869+01:00,3614.17584275,-0.9796142578125,0.3087158203125,-0.2705535888671875
2023-11-29T21:31:41.889+01:00,3614.19577975,-0.9805908203125,0.2978057861328125,-0.2673187255859375
2023-11-29T21:31:41.909+01:00,3614.21571675,-0.9619598388671875,0.2874298095703125,-0.2623443603515625
2023-11-29T21:31:41.929+01:00,3614.23565475,-0.9411163330078125,0.2719879150390625,-0.25579833984375
2023-11-29T21:31:41.949+01:00,3614.25559175,-0.9355316162109375,0.269622802734375,-0.25360107421875
2023-11-29T21:31:41.968+01:00,3614.27552875,-0.9290924072265625,0.26275634765625,-0.2546844482421875
2023-11-29T21:31:41.988+01:00,3614.29546575,-0.9274444580078125,0.2526702880859375,-0.2570648193359375
2023-11-29T21:31:42.008+01:00,3614.31540375,-0.93218994140625,0.2514495849609375,-0.25946044921875
2023-11-29T21:31:42.028+01:00,3614.33534075,-0.9271087646484375,0.248565673828125,-0.2528839111328125
2023-11-29T21:31:42.048+01:00,3614.35527775,-0.92584228515625,0.2601470947265625,-0.2623138427734375
2023-11-29T21:31:42.068+01:00,3614.37521475,-0.907196044921875,0.25732421875,-0.26251220703125
2023-11-29T21:31:42.088+01:00,3614.39515275,-0.89984130859375,0.2562713623046875,-0.2667236328125
2023-11-29T21:31:42.108+01:00,3614.41508975,-0.9030609130859375,0.2635345458984375,-0.272369384765625
2023-11-29T21:31:42.128+01:00,3614.43502675,-0.899139404296875,0.2598876953125,-0.269744873046875
2023-11-29T21:31:42.148+01:00,3614.45496375,-0.883087158203125,0.2595672607421875,-0.274200439453125
2023-11-29T21:31:42.168+01:00,3614.47490175,-0.86767578125,0.2624359130859375,-0.282196044921875
2023-11-29T21:31:42.188+01:00,3614.49483875,-0.8576507568359375,0.265777587890625,-0.291168212890625
2023-11-29T21:31:42.208+01:00,3614.51477575,-0.855682373046875,0.2668914794921875,-0.2993621826171875
2023-11-29T21:31:42.228+01:00,3614.53471275,-0.85357666015625,0.283782958984375,-0.30999755859375
2023-11-29T21:31:42.248+01:00,3614.55465075,-0.86474609375,0.296142578125,-0.317169189453125
2023-11-29T21:31:42.268+01:00,3614.57458775,-0.8849334716796875,0.31219482421875,-0.330718994140625
2023-11-29T21:31:42.287+01:00,3614.59452475,-0.9068145751953125,0.30963134765625,-0.3241119384765625
2023-11-29T21:31:42.308+01:00,3614.6144605,-0.9120025634765625,0.310028076171875,-0.326995849609375
2023-11-29T21:31:42.327+01:00,3614.6343985,-0.9164581298828125,0.308685302734375,-0.3258209228515625
2023-11-29T21:31:42.347+01:00,3614.6543355,-0.9061279296875,0.296356201171875,-0.3151397705078125
2023-11-29T21:31:42.367+01:00,3614.6742725,-0.9091949462890625,0.2967987060546875,-0.312957763671875
2023-11-29T21:31:42.387+01:00,3614.6942095,-0.917144775390625,0.30072021484375,-0.316558837890625
2023-11-29T21:31:42.407+01:00,3614.7141475,-0.9105072021484375,0.2950439453125,-0.3137359619140625
2023-11-29T21:31:42.427+01:00,3614.7340845,-0.8985137939453125,0.286285400390625,-0.3049774169921875
2023-11-29T21:31:42.447+01:00,3614.7540215,-0.88604736328125,0.284942626953125,-0.2993316650390625
2023-11-29T21:31:42.467+01:00,3614.7739585,-0.8831939697265625,0.281768798828125,-0.2921295166015625
2023-11-29T21:31:42.487+01:00,3614.7938955,-0.881622314453125,0.284881591796875,-0.281341552734375
2023-11-29T21:31:42.507+01:00,3614.8138335,-0.888946533203125,0.2928009033203125,-0.2825775146484375
2023-11-29T21:31:42.527+01:00,3614.8337705,-0.8963775634765625,0.299774169921875,-0.2840423583984375
2023-11-29T21:31:42.547+01:00,3614.8537075,-0.905975341796875,0.302490234375,-0.2826690673828125
2023-11-29T21:31:42.567+01:00,3614.8736445,-0.9141387939453125,0.3064727783203125,-0.285675048828125
2023-11-29T21:31:42.587+01:00,3614.8935825,-0.9129638671875,0.3158721923828125,-0.2857208251953125
2023-11-29T21:31:42.607+01:00,3614.9135195,-0.9118804931640625,0.323883056640625,-0.2877655029296875
2023-11-29T21:31:42.626+01:00,3614.9334565,-0.92169189453125,0.3234710693359375,-0.286712646484375
2023-11-29T21:31:42.646+01:00,3614.9533935,-0.9270477294921875,0.3377838134765625,-0.2978057861328125
2023-11-29T21:31:42.667+01:00,3614.9733315,-0.916412353515625,0.3532257080078125,-0.292938232421875
2023-11-29T21:31:42.686+01:00,3614.9932685,-0.912689208984375,0.3127593994140625,-0.2816925048828125
2023-11-29T21:31:42.706+01:00,3615.0132055,-0.920501708984375,0.2817840576171875,-0.2842559814453125
2023-11-29T21:31:42.726+01:00,3615.0331425,-0.9182891845703125,0.2945404052734375,-0.293731689453125
2023-11-29T21:31:42.746+01:00,3615.0530805,-0.9518280029296875,0.2894287109375,-0.26727294921875
2023-11-29T21:31:42.766+01:00,3615.0730175,-0.9876708984375,0.358428955078125,-0.2580718994140625
2023-11-29T21:31:42.786+01:00,3615.0929545,-0.9834747314453125,0.3578033447265625,-0.2381439208984375
2023-11-29T21:31:42.809+01:00,3615.1128915,-0.9582061767578125,0.3375701904296875,-0.2467193603515625
2023-11-29T21:31:42.826+01:00,3615.1328295,-0.933380126953125,0.322845458984375,-0.2640838623046875
2023-11-29T21:31:42.846+01:00,3615.1527665,-0.8924102783203125,0.2805633544921875,-0.2392730712890625
2023-11-29T21:31:42.866+01:00,3615.1727035,-0.8546600341796875,0.25738525390625,-0.2480010986328125
2023-11-29T21:31:42.886+01:00,3615.1926405,-0.8188629150390625,0.2271575927734375,-0.2404632568359375
2023-11-29T21:31:42.906+01:00,3615.2125785,-0.8213348388671875,0.3218994140625,-0.3021240234375
2023-11-29T21:31:42.925+01:00,3615.2325155,-0.881195068359375,0.31201171875,-0.304779052734375
2023-11-29T21:31:42.945+01:00,3615.2524525,-0.8121795654296875,0.390716552734375,-0.3170928955078125
2023-11-29T21:31:42.965+01:00,3615.2723895,-0.727386474609375,0.43902587890625,-0.380615234375
2023-11-29T21:31:42.985+01:00,3615.2923275,-0.6929168701171875,0.4579010009765625,-0.3960418701171875
2023-11-29T21:31:43.005+01:00,3615.3122645,-0.720916748046875,0.5365142822265625,-0.4204254150390625
2023-11-29T21:31:43.025+01:00,3615.3322015,-0.724365234375,0.3407135009765625,-0.4046478271484375
2023-11-29T21:31:43.045+01:00,3615.3521385,-0.7170257568359375,0.645233154296875,-0.423736572265625
2023-11-29T21:31:43.065+01:00,3615.3720765,-0.6067962646484375,0.8863372802734375,-0.5061492919921875
2023-11-29T21:31:43.085+01:00,3615.3920135,-0.464447021484375,0.9377899169921875,-0.53216552734375
2023-11-29T21:31:43.105+01:00,3615.4119505,-0.503814697265625,1.06890869140625,-0.5638580322265625
2023-11-29T21:31:43.125+01:00,3615.4318875,-0.7667388916015625,1.365585327148438,-0.4166717529296875
2023-11-29T21:31:43.145+01:00,3615.4518245,-1.019760131835938,1.4378662109375,-0.424713134765625
2023-11-29T21:31:43.165+01:00,3615.4717625,-1.139801025390625,1.346786499023438,-0.069793701171875
