loggingTime(txt),accelerometerTimestamp_sinceReboot(s),accelerometerAccelerationX(G),accelerometerAccelerationY(G),accelerometerAccelerationZ(G)
2023-11-29T21:24:41.496+01:00,3193.800868875,0.0161590576171875,-0.3115386962890625,-0.856109619140625
2023-11-29T21:24:41.516+01:00,3193.820805875,0.0428924560546875,-0.3829803466796875,-0.846893310546875
2023-11-29T21:24:41.536+01:00,3193.840743875,0.015533447265625,-0.3178558349609375,-0.8900909423828125
2023-11-29T21:24:41.556+01:00,3193.860681875,-0.0540771484375,-0.2990570068359375,-0.89910888671875
2023-11-29T21:24:41.576+01:00,3193.880618875,-0.0640716552734375,-0.2935638427734375,-0.8839263916015625
2023-11-29T21:24:41.596+01:00,3193.900556875,-0.075347900390625,-0.257904052734375,-0.8839111328125
2023-11-29T21:24:41.616+01:00,3193.920493875,-0.0674896240234375,-0.276824951171875,-0.896209716796875
2023-11-29T21:24:41.636+01:00,3193.940431875,-0.0850830078125,-0.32452392578125,-0.9079742431640625
2023-11-29T21:24:41.656+01:00,3193.960368875,-0.09259033203125,-0.32110595703125,-0.9156036376953125
2023-11-29T21:24:41.676+01:00,3193.980306875,-0.1189422607421875,-0.2866058349609375,-0.9448089599609375
2023-11-29T21:24:41.706+01:00,3194.000243875,-0.1152496337890625,-0.3590545654296875,-0.955963134765625
2023-11-29T21:24:41.715+01:00,3194.020181875,-0.112945556640625,-0.38104248046875,-0.9469451904296875
2023-11-29T21:24:41.735+01:00,3194.040118875,-0.12939453125,-0.3399658203125,-0.963470458984375
2023-11-29T21:24:41.755+01:00,3194.060056875,-0.15008544921875,-0.2961883544921875,-1.00714111328125
2023-11-29T21:24:41.775+01:00,3194.079994875,-0.160125732421875,-0.2853240966796875,-1.012039184570312
2023-11-29T21:24:41.803+01:00,3194.099931875,-0.17779541015625,-0.2797393798828125,-0.9950714111328125
2023-11-29T21:24:41.820+01:00,3194.119869875,-0.1869964599609375,-0.2692413330078125,-0.987640380859375
2023-11-29T21:24:41.835+01:00,3194.139806875,-0.1995849609375,-0.25390625,-0.9569244384765625
2023-11-29T21:24:41.855+01:00,3194.15974525,-0.1947174072265625,-0.2378082275390625,-0.9663543701171875
2023-11-29T21:24:41.875+01:00,3194.17968225,-0.1981964111328125,-0.20172119140625,-0.9803314208984375
2023-11-29T21:24:41.895+01:00,3194.19962025,-0.2234344482421875,-0.2326202392578125,-0.9842071533203125
2023-11-29T21:24:41.915+01:00,3194.21955725,-0.23150634765625,-0.2520599365234375,-0.9805450439453125
2023-11-29T21:24:41.935+01:00,3194.23949525,-0.210693359375,-0.2113189697265625,-0.9451141357421875
2023-11-29T21:24:41.955+01:00,3194.25943225,-0.1967010498046875,-0.2083740234375,-0.874114990234375
2023-11-29T21:24:41.975+01:00,3194.27937025,-0.1775054931640625,-0.206695556640625,-0.874908447265625
2023-11-29T21:24:41.994+01:00,3194.29930725,-0.1762847900390625,-0.2002105712890625,-0.9091339111328125
2023-11-29T21:24:42.014+01:00,3194.31924525,-0.186737060546875,-0.231201171875,-0.9115753173828125
2023-11-29T21:24:42.034+01:00,3194.33918325,-0.1988983154296875,-0.264007568359375,-0.8733062744140625
2023-11-29T21:24:42.055+01:00,3194.35912025,-0.2398529052734375,-0.27679443359375,-0.8751983642578125
2023-11-29T21:24:42.074+01:00,3194.37905825,-0.2924041748046875,-0.25799560546875,-0.895660400390625
2023-11-29T21:24:42.094+01:00,3194.39899525,-0.3446044921875,-0.2259521484375,-0.876861572265625
2023-11-29T21:24:42.114+01:00,3194.41893325,-0.440185546875,-0.2207183837890625,-0.8315582275390625
2023-11-29T21:24:42.134+01:00,3194.43887025,-0.70361328125,-0.3649139404296875,-0.7998199462890625
2023-11-29T21:24:42.154+01:00,3194.45880825,-0.6227874755859375,-0.3590087890625,-0.76654052734375
2023-11-29T21:24:42.174+01:00,3194.47874525,-0.76458740234375,-0.32501220703125,-0.75396728515625
2023-11-29T21:24:42.194+01:00,3194.49868325,-0.7981414794921875,-0.2784271240234375,-0.6487579345703125
2023-11-29T21:24:42.214+01:00,3194.51862025,-0.7923736572265625,-0.2170257568359375,-0.5558929443359375
2023-11-29T21:24:42.234+01:00,3194.53855825,-0.7697296142578125,-0.0944061279296875,-0.491546630859375
2023-11-29T21:24:42.254+01:00,3194.55849625,-0.7358245849609375,-0.016387939453125,-0.4453125
2023-11-29T21:24:42.275+01:00,3194.57843325,-0.673004150390625,0.0634307861328125,-0.3768768310546875
2023-11-29T21:24:42.294+01:00,3194.59837125,-0.614105224609375,0.1772613525390625,-0.347320556640625
2023-11-29T21:24:42.314+01:00,3194.61830825,-0.5477142333984375,0.3440093994140625,-0.343109130859375
2023-11-29T21:24:42.334+01:00,3194.63824625,-0.4995574951171875,0.476806640625,-0.356689453125
2023-11-29T21:24:42.354+01:00,3194.65818325,-0.482879638671875,0.6429901123046875,-0.41033935546875
2023-11-29T21:24:42.373+01:00,3194.67812125,-0.458709716796875,0.8797607421875,-0.5012054443359375
2023-11-29T21:24:42.393+01:00,3194.69805825,-0.4078826904296875,1.037551879882812,-0.5638427734375
2023-11-29T21:24:42.416+01:00,3194.71799625,-0.3838653564453125,0.9446258544921875,-0.6334228515625
2023-11-29T21:24:42.435+01:00,3194.73793325,-0.3650970458984375,0.8354034423828125,-0.6400909423828125
2023-11-29T21:24:42.453+01:00,3194.75787125,-0.3964691162109375,0.8432159423828125,-0.683868408203125
2023-11-29T21:24:42.473+01:00,3194.77780925,-0.3670501708984375,0.804779052734375,-0.7149505615234375
2023-11-29T21:24:42.493+01:00,3194.79774625,-0.3808135986328125,0.856353759765625,-0.744720458984375
2023-11-29T21:24:42.513+01:00,3194.81768425,-0.3655853271484375,0.874053955078125,-0.7386322021484375
2023-11-29T21:24:42.533+01:00,3194.83762125,-0.3668060302734375,0.861541748046875,-0.724151611328125
2023-11-29T21:24:42.553+01:00,3194.85755925,-0.484100341796875,0.9003753662109375,-0.693939208984375
2023-11-29T21:24:42.573+01:00,3194.87749625,-0.580596923828125,0.8912353515625,-0.639404296875
2023-11-29T21:24:42.593+01:00,3194.89743425,-0.6681671142578125,0.9301605224609375,-0.6868896484375
2023-11-29T21:24:42.614+01:00,3194.91737125,-0.755523681640625,0.9500274658203125,-0.7019500732421875
2023-11-29T21:24:42.633+01:00,3194.93730925,-0.942657470703125,0.9893951416015625,-0.64410400390625
2023-11-29T21:24:42.653+01:00,3194.95724625,-1.076385498046875,0.8709869384765625,-0.53900146484375
2023-11-29T21:24:42.672+01:00,3194.97718425,-1.05712890625,0.7478485107421875,-0.4202423095703125
2023-11-29T21:24:42.693+01:00,3194.99712225,-0.9163818359375,0.7011260986328125,-0.3119049072265625
2023-11-29T21:24:42.712+01:00,3195.01705925,-0.85955810546875,0.7027435302734375,-0.2429962158203125
2023-11-29T21:24:42.732+01:00,3195.03699725,-0.8307342529296875,0.65277099609375,-0.1914520263671875
2023-11-29T21:24:42.752+01:00,3195.05693425,-0.8017730712890625,0.5573883056640625,-0.1452789306640625
2023-11-29T21:24:42.772+01:00,3195.07687225,-0.7922210693359375,0.572265625,-0.108978271484375
2023-11-29T21:24:42.792+01:00,3195.09680925,-0.8449859619140625,0.5374908447265625,-0.1030426025390625
2023-11-29T21:24:42.812+01:00,3195.11674725,-0.8831329345703125,0.48046875,-0.0749053955078125
2023-11-29T21:24:42.832+01:00,3195.13668425,-0.87164306640625,0.4372100830078125,-0.041107177734375
2023-11-29T21:24:42.852+01:00,3195.15662225,-0.86761474609375,0.433746337890625,-0.0247955322265625
2023-11-29T21:24:42.872+01:00,3195.176561541667,-0.8780975341796875,0.42095947265625,0.00537109375
2023-11-29T21:24:42.892+01:00,3195.196498541667,-0.9173736572265625,0.351226806640625,0.0294189453125
2023-11-29T21:24:42.912+01:00,3195.216436541667,-1.01953125,0.259307861328125,0.030914306640625
2023-11-29T21:24:42.932+01:00,3195.236373541667,-1.148178100585938,0.4089508056640625,-0.126220703125
2023-11-29T21:24:42.951+01:00,3195.256311541667,-1.117080688476562,0.56341552734375,-0.1810150146484375
2023-11-29T21:24:42.971+01:00,3195.276248541667,-1.007598876953125,0.354034423828125,-0.1365203857421875
2023-11-29T21:24:42.991+01:00,3195.296186541667,-0.9670257568359375,0.4544677734375,-0.0827484130859375
2023-11-29T21:24:43.011+01:00,3195.316123541667,-0.9517822265625,0.508758544921875,-0.1505126953125
2023-11-29T21:24:43.031+01:00,3195.336061541667,-0.9884185791015625,0.4954071044921875,-0.0884246826171875
2023-11-29T21:24:43.051+01:00,3195.355998541667,-1.016204833984375,0.3962249755859375,-0.052947998046875
2023-11-29T21:24:43.071+01:00,3195.375936541667,-1.04217529296875,0.482025146484375,-0.0495147705078125
2023-11-29T21:24:43.091+01:00,3195.395874541667,-1.117050170898438,0.593353271484375,-0.020904541015625
2023-11-29T21:24:43.113+01:00,3195.415811541667,-1.179855346679688,0.568206787109375,0.0360565185546875
2023-11-29T21:24:43.131+01:00,3195.435749541667,-1.182785034179688,0.5112457275390625,0.003326416015625
2023-11-29T21:24:43.151+01:00,3195.455686541667,-1.138992309570312,0.4386138916015625,-0.0764923095703125
2023-11-29T21:24:43.171+01:00,3195.475624541667,-1.162612915039062,0.479400634765625,-0.1448516845703125
2023-11-29T21:24:43.191+01:00,3195.495561541667,-1.22119140625,0.3916168212890625,-0.20294189453125
2023-11-29T21:24:43.211+01:00,3195.515499541667,-1.226608276367188,0.2843475341796875,-0.333831787109375
2023-11-29T21:24:43.236+01:00,3195.535436541667,-1.288894653320312,0.309844970703125,-0.4923248291015625
2023-11-29T21:24:43.251+01:00,3195.555374541667,-1.313232421875,0.315277099609375,-0.57318115234375
2023-11-29T21:24:43.271+01:00,3195.575312541667,-1.3126220703125,0.155120849609375,-0.6068878173828125
2023-11-29T21:24:43.290+01:00,3195.595249541667,-1.319503784179688,0.1675262451171875,-0.5597991943359375
2023-11-29T21:24:43.310+01:00,3195.615187541667,-1.328262329101562,0.3356475830078125,-0.569580078125
2023-11-29T21:24:43.330+01:00,3195.635124541667,-1.355438232421875,0.41705322265625,-0.5576324462890625
2023-11-29T21:24:43.350+01:00,3195.655062541667,-1.373611450195312,0.470611572265625,-0.5347442626953125
2023-11-29T21:24:43.370+01:00,3195.674999541667,-1.389129638671875,0.5248260498046875,-0.5000152587890625
2023-11-29T21:24:43.390+01:00,3195.694937541667,-1.4056396484375,0.4247894287109375,-0.4285888671875
2023-11-29T21:24:43.410+01:00,3195.714874541667,-1.348220825195312,0.4016571044921875,-0.41644287109375
2023-11-29T21:24:43.430+01:00,3195.734812541667,-1.2890625,0.44342041015625,-0.4071197509765625
2023-11-29T21:24:43.450+01:00,3195.754750541667,-1.214385986328125,0.337066650390625,-0.2689208984375
2023-11-29T21:24:43.470+01:00,3195.774687541667,-1.134262084960938,0.3113555908203125,-0.2659912109375
2023-11-29T21:24:43.490+01:00,3195.794625541667,-1.097274780273438,0.27899169921875,-0.327484130859375
2023-11-29T21:24:43.510+01:00,3195.814562541667,-1.1102294921875,0.3899993896484375,-0.37744140625
2023-11-29T21:24:43.530+01:00,3195.834500541667,-1.095611572265625,0.2984619140625,-0.160064697265625
2023-11-29T21:24:43.550+01:00,3195.854437541667,-0.9792327880859375,0.26788330078125,-0.0269012451171875
2023-11-29T21:24:43.570+01:00,3195.874375541667,-0.82501220703125,0.3114471435546875,0.0958251953125
2023-11-29T21:24:43.589+01:00,3195.894312541667,-0.7355499267578125,0.243316650390625,0.2642669677734375
2023-11-29T21:24:43.609+01:00,3195.914250541667,-0.6488037109375,0.1515960693359375,0.4843292236328125
2023-11-29T21:24:43.629+01:00,3195.934188541667,-0.550079345703125,0.14276123046875,0.5183868408203125
2023-11-29T21:24:43.649+01:00,3195.954125541667,-0.5303497314453125,0.300323486328125,0.5424957275390625
2023-11-29T21:24:43.669+01:00,3195.974063541667,-0.542022705078125,0.3408355712890625,0.6177978515625
2023-11-29T21:24:43.689+01:00,3195.994000541667,-0.5087738037109375,0.2817840576171875,0.7515411376953125
2023-11-29T21:24:43.709+01:00,3196.013938541667,-0.457275390625,0.159088134765625,0.890289306640625
2023-11-29T21:24:43.729+01:00,3196.033875541667,-0.3980712890625,0.1649627685546875,1.033554077148438
2023-11-29T21:24:43.749+01:00,3196.053813541667,-0.3731536865234375,0.3282470703125,1.1524658203125
2023-11-29T21:24:43.769+01:00,3196.073750541667,-0.4114990234375,0.4952545166015625,1.318954467773438
2023-11-29T21:24:43.789+01:00,3196.093688541667,-0.561859130859375,0.5622406005859375,1.583023071289062
2023-11-29T21:24:43.809+01:00,3196.113626541667,-0.92401123046875,0.66058349609375,1.943878173828125
2023-11-29T21:24:43.829+01:00,3196.133563541667,-1.446884155273438,1.112030029296875,2.66668701171875
2023-11-29T21:24:43.849+01:00,3196.153501541667,-2.417404174804688,1.563552856445312,3.131576538085938
2023-11-29T21:24:43.869+01:00,3196.17343875,-3.671844482421875,1.661331176757812,2.886322021484375
2023-11-29T21:24:43.889+01:00,3196.19337675,-4.741378784179688,1.776031494140625,2.23126220703125
2023-11-29T21:24:43.908+01:00,3196.21331375,-5.7191162109375,2.404434204101562,1.452972412109375
2023-11-29T21:24:43.928+01:00,3196.23325175,-5.794174194335938,2.896743774414062,-0.074676513671875
2023-11-29T21:24:43.948+01:00,3196.25318975,-5.335784912109375,2.192962646484375,-0.3587188720703125
2023-11-29T21:24:43.968+01:00,3196.27312675,-4.147552490234375,0.9566192626953125,-0.437469482421875
2023-11-29T21:24:43.988+01:00,3196.29306475,-3.117538452148438,1.594268798828125,3.211456298828125
2023-11-29T21:24:44.008+01:00,3196.31300175,-1.834564208984375,1.642623901367188,2.55828857421875
2023-11-29T21:24:44.028+01:00,3196.33293975,-1.658920288085938,-0.2559814453125,0.6168060302734375
2023-11-29T21:24:44.048+01:00,3196.35287675,-0.456695556640625,0.2661895751953125,3.638107299804688
2023-11-29T21:24:44.068+01:00,3196.37281475,-2.450164794921875,1.473876953125,1.544189453125
2023-11-29T21:24:44.088+01:00,3196.39275175,-1.4619140625,-2.084060668945312,0.6471405029296875
2023-11-29T21:24:44.108+01:00,3196.41268975,-1.945465087890625,-1.462814331054688,-0.2760162353515625
2023-11-29T21:24:44.128+01:00,3196.43262775,-1.8387451171875,-1.176116943359375,-0.8087615966796875
2023-11-29T21:24:44.148+01:00,3196.45256475,-1.322265625,-0.84368896484375,-1.11773681640625
2023-11-29T21:24:44.168+01:00,3196.47250275,-1.144805908203125,-0.48931884765625,-0.6093902587890625
2023-11-29T21:24:44.188+01:00,3196.49243975,-0.8367767333984375,-0.16729736328125,-0.50604248046875
2023-11-29T21:24:44.208+01:00,3196.51237775,-0.7076873779296875,-0.2333221435546875,-0.3914794921875
2023-11-29T21:24:44.227+01:00,3196.53231475,-0.6705780029296875,-0.007781982421875,-0.316314697265625
2023-11-29T21:24:44.247+01:00,3196.55225275,-0.6660308837890625,0.181488037109375,-0.324493408203125
2023-11-29T21:24:44.267+01:00,3196.57218975,-0.6975555419921875,0.32513427734375,-0.3614959716796875
2023-11-29T21:24:44.287+01:00,3196.59212775,-0.7025604248046875,0.399200439453125,-0.3116607666015625
2023-11-29T21:24:44.307+01:00,3196.61206575,-0.6540374755859375,0.6668243408203125,-0.24749755859375
2023-11-29T21:24:44.327+01:00,3196.63200275,-0.419586181640625,1.008514404296875,-0.1515045166015625
2023-11-29T21:24:44.348+01:00,3196.65194075,-0.4176025390625,1.3521728515625,-0.006988525390625
2023-11-29T21:24:44.367+01:00,3196.67187775,-0.6421051025390625,2.135391235351562,0.0634613037109375
2023-11-29T21:24:44.387+01:00,3196.69181575,-0.4686279296875,2.479293823242188,0.13079833984375
2023-11-29T21:24:44.407+01:00,3196.71175275,-0.162750244140625,2.52520751953125,0.034271240234375
2023-11-29T21:24:44.427+01:00,3196.73169075,-0.0393524169921875,2.154830932617188,-0.4860992431640625
2023-11-29T21:24:44.447+01:00,3196.75162875,-0.00885009765625,1.975082397460938,-0.2608489990234375
2023-11-29T21:24:44.467+01:00,3196.77156575,0.0040130615234375,1.755508422851562,0.0373687744140625
2023-11-29T21:24:44.487+01:00,3196.79150375,0.1499786376953125,1.553329467773438,0.0038604736328125
2023-11-29T21:24:44.507+01:00,3196.81144075,-0.0028533935546875,1.289718627929688,-0.0912628173828125
2023-11-29T21:24:44.527+01:00,3196.83137875,-0.2380218505859375,1.094497680664062,-0.1470947265625
2023-11-29T21:24:44.547+01:00,3196.85131575,-0.2217559814453125,0.9352569580078125,-0.17095947265625
2023-11-29T21:24:44.566+01:00,3196.87125375,-0.1994476318359375,0.9801788330078125,-0.1080780029296875
2023-11-29T21:24:44.586+01:00,3196.89119075,-0.2942352294921875,1.251373291015625,-0.119720458984375
2023-11-29T21:24:44.606+01:00,3196.91112875,-0.3550567626953125,1.250885009765625,-0.1153564453125
2023-11-29T21:24:44.626+01:00,3196.93106675,-0.330535888671875,1.132781982421875,-0.1532745361328125
2023-11-29T21:24:44.646+01:00,3196.95100375,-0.36395263671875,1.129806518554688,-0.213348388671875
2023-11-29T21:24:44.666+01:00,3196.97094175,-0.46722412109375,1.223968505859375,-0.294952392578125
2023-11-29T21:24:44.686+01:00,3196.99087875,-0.5621795654296875,1.279525756835938,-0.33526611328125
2023-11-29T21:24:44.706+01:00,3197.01081675,-0.6573638916015625,1.285293579101562,-0.3322601318359375
2023-11-29T21:24:44.726+01:00,3197.03075375,-0.7183074951171875,1.300018310546875,-0.3296051025390625
2023-11-29T21:24:44.746+01:00,3197.05069175,-0.7626495361328125,1.271591186523438,-0.3774261474609375
2023-11-29T21:24:44.766+01:00,3197.07062975,-0.682403564453125,1.149093627929688,-0.35504150390625
2023-11-29T21:24:44.786+01:00,3197.09056675,-0.5918121337890625,1.081451416015625,-0.356231689453125
2023-11-29T21:24:44.806+01:00,3197.11050475,-0.563873291015625,0.98406982421875,-0.3175201416015625
2023-11-29T21:24:44.826+01:00,3197.13044175,-0.557830810546875,0.9099273681640625,-0.281402587890625
2023-11-29T21:24:44.845+01:00,3197.15037975,-0.58795166015625,0.774871826171875,-0.2974395751953125
2023-11-29T21:24:44.865+01:00,3197.170315625,-0.5675048828125,0.720367431640625,-0.33966064453125
2023-11-29T21:24:44.885+01:00,3197.190253625,-0.5760498046875,0.6894989013671875,-0.379791259765625
2023-11-29T21:24:44.905+01:00,3197.210190625,-0.5557861328125,0.644805908203125,-0.40020751953125
2023-11-29T21:24:44.925+01:00,3197.230128625,-0.5039215087890625,0.628814697265625,-0.3956146240234375
2023-11-29T21:24:44.945+01:00,3197.250066625,-0.4258575439453125,0.590789794921875,-0.3952178955078125
2023-11-29T21:24:44.965+01:00,3197.270003625,-0.350341796875,0.56378173828125,-0.37127685546875
2023-11-29T21:24:44.985+01:00,3197.289941625,-0.3066253662109375,0.4990692138671875,-0.3965606689453125
2023-11-29T21:24:45.005+01:00,3197.309878625,-0.2355499267578125,0.4600372314453125,-0.4162750244140625
2023-11-29T21:24:45.025+01:00,3197.329816625,-0.1602630615234375,0.46728515625,-0.449951171875
2023-11-29T21:24:45.045+01:00,3197.349753625,-0.1336822509765625,0.5900421142578125,-0.4618072509765625
2023-11-29T21:24:45.065+01:00,3197.369691625,-0.1184234619140625,0.617340087890625,-0.5292205810546875
2023-11-29T21:24:45.085+01:00,3197.389628625,-0.1044158935546875,0.48846435546875,-0.4319305419921875
2023-11-29T21:24:45.105+01:00,3197.409566625,-0.0423126220703125,0.3026275634765625,-0.3586273193359375
2023-11-29T21:24:45.125+01:00,3197.429504625,-0.1048736572265625,0.444610595703125,-0.4496612548828125
2023-11-29T21:24:45.145+01:00,3197.449441625,-0.1611480712890625,0.8602752685546875,-0.518646240234375
2023-11-29T21:24:45.165+01:00,3197.469379625,-0.2115936279296875,0.912322998046875,-0.605072021484375
2023-11-29T21:24:45.185+01:00,3197.489316625,-0.2730865478515625,0.8524017333984375,-0.61077880859375
2023-11-29T21:24:45.204+01:00,3197.509254625,-0.3221893310546875,0.9002227783203125,-0.5569915771484375
2023-11-29T21:24:45.224+01:00,3197.529191625,-0.370147705078125,1.010025024414062,-0.5504913330078125
2023-11-29T21:24:45.244+01:00,3197.549129625,-0.409820556640625,1.106948852539062,-0.559539794921875
2023-11-29T21:24:45.264+01:00,3197.569066625,-0.4472198486328125,1.090576171875,-0.5572357177734375
2023-11-29T21:24:45.284+01:00,3197.589004625,-0.45904541015625,1.0740966796875,-0.4727325439453125
2023-11-29T21:24:45.304+01:00,3197.608942625,-0.477813720703125,1.017105102539062,-0.43585205078125
2023-11-29T21:24:45.324+01:00,3197.628879625,-0.498779296875,1.022857666015625,-0.38348388671875
2023-11-29T21:24:45.344+01:00,3197.648817625,-0.5111236572265625,1.002578735351562,-0.3330078125
2023-11-29T21:24:45.364+01:00,3197.668754625,-0.547882080078125,0.9805908203125,-0.2827301025390625
2023-11-29T21:24:45.384+01:00,3197.688692625,-0.5815887451171875,0.8806915283203125,-0.2228851318359375
2023-11-29T21:24:45.404+01:00,3197.708629625,-0.5697174072265625,0.801727294921875,-0.200714111328125
2023-11-29T21:24:45.424+01:00,3197.728567625,-0.520233154296875,0.7147064208984375,-0.2317047119140625
2023-11-29T21:24:45.444+01:00,3197.748505625,-0.480499267578125,0.68414306640625,-0.18341064453125
2023-11-29T21:24:45.464+01:00,3197.768442625,-0.4533538818359375,0.6680450439453125,-0.1584320068359375
2023-11-29T21:24:45.484+01:00,3197.788380625,-0.4141998291015625,0.6804656982421875,-0.14544677734375
2023-11-29T21:24:45.503+01:00,3197.808317625,-0.3722991943359375,0.6724395751953125,-0.16754150390625
2023-11-29T21:24:45.524+01:00,3197.828255625,-0.382537841796875,0.6437835693359375,-0.178131103515625
2023-11-29T21:24:45.543+01:00,3197.848192625,-0.429840087890625,0.6178436279296875,-0.155181884765625
2023-11-29T21:24:45.563+01:00,3197.868130625,-0.4336700439453125,0.6305389404296875,-0.149688720703125
2023-11-29T21:24:45.583+01:00,3197.888067625,-0.5018157958984375,0.6719970703125,-0.1710968017578125
2023-11-29T21:24:45.603+01:00,3197.908005625,-0.5326080322265625,0.5965423583984375,-0.1686859130859375
2023-11-29T21:24:45.627+01:00,3197.927943625,-0.5386505126953125,0.5379486083984375,-0.147674560546875
2023-11-29T21:24:45.644+01:00,3197.947880625,-0.5323333740234375,0.4288330078125,-0.241973876953125
2023-11-29T21:24:45.663+01:00,3197.967818625,-0.53424072265625,0.427825927734375,-0.33441162109375
2023-11-29T21:24:45.683+01:00,3197.987755625,-0.682830810546875,0.5608062744140625,-0.469482421875
2023-11-29T21:24:45.703+01:00,3198.007693625,-0.8008880615234375,0.832366943359375,-0.508758544921875
2023-11-29T21:24:45.723+01:00,3198.027630625,-0.900787353515625,1.018524169921875,-0.6727447509765625
2023-11-29T21:24:45.743+01:00,3198.047568625,-0.9073333740234375,1.172805786132812,-0.875579833984375
2023-11-29T21:24:45.763+01:00,3198.067506625,-0.8927154541015625,1.196060180664062,-1.005828857421875
2023-11-29T21:24:45.782+01:00,3198.087443625,-0.7179107666015625,1.337249755859375,-1.039932250976562
2023-11-29T21:24:45.802+01:00,3198.107381625,-0.52777099609375,1.350112915039062,-1.100143432617188
2023-11-29T21:24:45.823+01:00,3198.127318625,-0.372314453125,1.245269775390625,-1.188262939453125
2023-11-29T21:24:45.842+01:00,3198.147256625,-0.1674652099609375,1.055984497070312,-1.113235473632812
2023-11-29T21:24:45.862+01:00,3198.167192625,-0.064544677734375,0.941162109375,-1.100601196289062
2023-11-29T21:24:45.882+01:00,3198.187130625,0.024993896484375,0.8980865478515625,-1.106460571289062
2023-11-29T21:24:45.902+01:00,3198.207067625,0.1459503173828125,0.803131103515625,-1.0875244140625
2023-11-29T21:24:45.922+01:00,3198.227005625,0.22998046875,0.6189422607421875,-1.081085205078125
2023-11-29T21:24:45.942+01:00,3198.246942625,0.31207275390625,0.5652008056640625,-1.099563598632812
2023-11-29T21:24:45.962+01:00,3198.266880625,0.3544769287109375,0.5295867919921875,-1.072769165039062
2023-11-29T21:24:45.982+01:00,3198.286818625,0.3389129638671875,0.458831787109375,-0.9839935302734375
2023-11-29T21:24:46.002+01:00,3198.306755625,0.330413818359375,0.4201812744140625,-0.884796142578125
2023-11-29T21:24:46.022+01:00,3198.326693625,0.3364105224609375,0.3756103515625,-0.82171630859375
2023-11-29T21:24:46.042+01:00,3198.346630625,0.3119354248046875,0.3814544677734375,-0.7798614501953125
2023-11-29T21:24:46.062+01:00,3198.366568625,0.283843994140625,0.3685302734375,-0.73028564453125
2023-11-29T21:24:46.082+01:00,3198.386505625,0.2208251953125,0.3918609619140625,-0.7687225341796875
2023-11-29T21:24:46.102+01:00,3198.406443625,0.142059326171875,0.6673431396484375,-0.8215789794921875
2023-11-29T21:24:46.122+01:00,3198.426380625,0.103363037109375,0.99700927734375,-0.94073486328125
2023-11-29T21:24:46.142+01:00,3198.446318625,-0.068359375,1.16387939453125,-1.119735717773438
2023-11-29T21:24:46.161+01:00,3198.466256625,-0.1463623046875,1.203536987304688,-1.099044799804688
2023-11-29T21:24:46.181+01:00,3198.486193625,-0.028167724609375,0.9889373779296875,-1.165176391601562
2023-11-29T21:24:46.201+01:00,3198.506131625,0.23114013671875,0.9308319091796875,-1.191162109375
2023-11-29T21:24:46.221+01:00,3198.526068625,0.31378173828125,0.93511962890625,-1.156692504882812
2023-11-29T21:24:46.241+01:00,3198.546006625,0.4038543701171875,0.7457733154296875,-1.112152099609375
2023-11-29T21:24:46.261+01:00,3198.565943625,0.5562286376953125,0.4338531494140625,-0.9549560546875
2023-11-29T21:24:46.281+01:00,3198.585881625,0.6470794677734375,0.303497314453125,-0.816802978515625
2023-11-29T21:24:46.301+01:00,3198.605818625,0.575775146484375,0.3654632568359375,-0.770355224609375
2023-11-29T21:24:46.321+01:00,3198.625756625,0.4853668212890625,0.488800048828125,-0.730316162109375
2023-11-29T21:24:46.341+01:00,3198.645694625,0.4120330810546875,0.472381591796875,-0.6343994140625
2023-11-29T21:24:46.361+01:00,3198.665631625,0.3833770751953125,0.442901611328125,-0.47247314453125
2023-11-29T21:24:46.381+01:00,3198.685569625,0.30682373046875,0.454864501953125,-0.475982666015625
2023-11-29T21:24:46.401+01:00,3198.705506625,0.203125,0.51873779296875,-0.558197021484375
2023-11-29T21:24:46.421+01:00,3198.725444625,0.16009521484375,0.507110595703125,-0.4292449951171875
2023-11-29T21:24:46.441+01:00,3198.745381625,0.2285919189453125,0.3264617919921875,-0.2558746337890625
2023-11-29T21:24:46.461+01:00,3198.765319625,0.3154296875,0.2656097412109375,-0.3719635009765625
2023-11-29T21:24:46.481+01:00,3198.785256625,0.4486541748046875,0.0466461181640625,-0.28753662109375
2023-11-29T21:24:46.500+01:00,3198.805194625,0.701568603515625,-0.14520263671875,0.067718505859375
2023-11-29T21:24:46.520+01:00,3198.825132625,1.108078002929688,-0.28173828125,0.1198883056640625
2023-11-29T21:24:46.540+01:00,3198.845069625,1.384918212890625,-0.427093505859375,0.049713134765625
2023-11-29T21:24:46.560+01:00,3198.865007625,1.525863647460938,-0.7454833984375,0.2276763916015625
2023-11-29T21:24:46.580+01:00,3198.884944625,1.646865844726562,-0.86968994140625,0.37481689453125
2023-11-29T21:24:46.600+01:00,3198.904882625,1.590179443359375,-0.7286834716796875,0.4532318115234375
2023-11-29T21:24:46.620+01:00,3198.924819625,1.39251708984375,-0.7478485107421875,0.54833984375
2023-11-29T21:24:46.640+01:00,3198.944757625,1.201461791992188,-0.94842529296875,0.8472442626953125
2023-11-29T21:24:46.660+01:00,3198.964694625,1.034957885742188,-0.9035797119140625,1.194595336914062
2023-11-29T21:24:46.680+01:00,3198.984632625,0.8124847412109375,-0.8618316650390625,1.476181030273438
2023-11-29T21:24:46.700+01:00,3199.004570625,0.4793701171875,-0.82501220703125,1.874847412109375
2023-11-29T21:24:46.720+01:00,3199.024507625,0.2753753662109375,-0.7934722900390625,2.145462036132812
2023-11-29T21:24:46.739+01:00,3199.044445625,0.284942626953125,-0.7234344482421875,2.166839599609375
2023-11-29T21:24:46.760+01:00,3199.064382625,0.133270263671875,-0.4935760498046875,1.903060913085938
2023-11-29T21:24:46.779+01:00,3199.084320625,-0.5650482177734375,-0.3158416748046875,1.993270874023438
2023-11-29T21:24:46.799+01:00,3199.104257625,-1.774795532226562,-0.315521240234375,2.591156005859375
2023-11-29T21:24:46.819+01:00,3199.124195625,-3.987625122070312,-0.2858123779296875,3.3719482421875
2023-11-29T21:24:46.839+01:00,3199.144132625,-5.36187744140625,0.3712921142578125,3.196807861328125
2023-11-29T21:24:46.859+01:00,3199.1640715,-6.691940307617188,0.609649658203125,2.053939819335938
2023-11-29T21:24:46.879+01:00,3199.1840095,-7.007705688476562,0.6493682861328125,0.26983642578125
2023-11-29T21:24:46.899+01:00,3199.2039465,-6.392562866210938,0.2037506103515625,0.914459228515625
2023-11-29T21:24:46.919+01:00,3199.2238845,-7.209503173828125,3.180953979492188,-3.52984619140625
2023-11-29T21:24:46.939+01:00,3199.2438215,-4.805068969726562,-0.0448150634765625,-2.474472045898438
2023-11-29T21:24:46.959+01:00,3199.2637595,-4.108078002929688,1.0611572265625,-2.928955078125
2023-11-29T21:24:46.979+01:00,3199.2836965,-4.292648315429688,1.853118896484375,-3.085342407226562
2023-11-29T21:24:46.999+01:00,3199.3036345,-4.444473266601562,1.533645629882812,-2.858444213867188
2023-11-29T21:24:47.019+01:00,3199.3235715,-4.004745483398438,1.490890502929688,-2.766799926757812
2023-11-29T21:24:47.039+01:00,3199.3435095,-4.095184326171875,1.766036987304688,-2.710647583007812
2023-11-29T21:24:47.059+01:00,3199.3634475,-3.716018676757812,1.588348388671875,-2.639602661132812
2023-11-29T21:24:47.079+01:00,3199.3833845,-3.313796997070312,1.2437744140625,-2.532196044921875
2023-11-29T21:24:47.098+01:00,3199.4033225,-2.956466674804688,1.225845336914062,-2.433624267578125
2023-11-29T21:24:47.118+01:00,3199.4232595,-2.233123779296875,4.4229736328125,-1.563751220703125
2023-11-29T21:24:47.138+01:00,3199.4431975,-0.6037445068359375,2.349990844726562,0.520751953125
2023-11-29T21:24:47.158+01:00,3199.4631345,-1.077163696289062,2.712203979492188,-0.5485076904296875
2023-11-29T21:24:47.178+01:00,3199.4830725,-0.7414398193359375,1.891586303710938,-0.2668609619140625
2023-11-29T21:24:47.198+01:00,3199.5030095,-0.43829345703125,0.360809326171875,-0.392578125
2023-11-29T21:24:47.218+01:00,3199.5229475,-0.162567138671875,-0.107635498046875,-0.1397552490234375
2023-11-29T21:24:47.238+01:00,3199.5428855,-0.2211456298828125,0.0838470458984375,0.0807037353515625
2023-11-29T21:24:47.258+01:00,3199.5628225,-0.2712860107421875,0.46466064453125,0.0142059326171875
2023-11-29T21:24:47.278+01:00,3199.5827605,-0.1639404296875,0.6129150390625,0.0909271240234375
2023-11-29T21:24:47.298+01:00,3199.6026975,-0.0707855224609375,0.616363525390625,0.1485595703125
2023-11-29T21:24:47.318+01:00,3199.6226355,-0.018218994140625,0.5653839111328125,0.1621246337890625
2023-11-29T21:24:47.338+01:00,3199.6425725,-0.0638427734375,0.5506134033203125,0.1151275634765625
2023-11-29T21:24:47.358+01:00,3199.6625105,-0.12335205078125,0.590118408203125,0.06231689453125
2023-11-29T21:24:47.378+01:00,3199.6824475,-0.22869873046875,0.528533935546875,0.070465087890625
2023-11-29T21:24:47.398+01:00,3199.7023855,-0.2831878662109375,0.3718414306640625,0.1722869873046875
2023-11-29T21:24:47.417+01:00,3199.7223235,-0.4862518310546875,0.2408294677734375,0.217864990234375
2023-11-29T21:24:47.437+01:00,3199.7422605,-0.869140625,0.2994384765625,0.202667236328125
2023-11-29T21:24:47.457+01:00,3199.7621985,-1.3885498046875,0.6437835693359375,0.101837158203125
2023-11-29T21:24:47.477+01:00,3199.7821355,-2.053390502929688,1.198532104492188,-0.02410888671875
2023-11-29T21:24:47.497+01:00,3199.8020735,-2.240020751953125,1.28759765625,-0.04119873046875
2023-11-29T21:24:47.517+01:00,3199.8220105,-1.708511352539062,0.8533782958984375,0.079803466796875
2023-11-29T21:24:47.537+01:00,3199.8419485,-1.406265258789062,0.665924072265625,0.0033721923828125
2023-11-29T21:24:47.557+01:00,3199.8618855,-1.33819580078125,0.7573394775390625,-0.2010040283203125
2023-11-29T21:24:47.578+01:00,3199.8818235,-1.244354248046875,0.8134002685546875,-0.2863616943359375
2023-11-29T21:24:47.597+01:00,3199.9017615,-1.125106811523438,0.6445770263671875,-0.26971435546875
2023-11-29T21:24:47.617+01:00,3199.9216985,-0.9603271484375,0.29547119140625,-0.3087158203125
2023-11-29T21:24:47.637+01:00,3199.9416365,-0.8371124267578125,0.233856201171875,-0.3850860595703125
2023-11-29T21:24:47.657+01:00,3199.9615735,-0.6491241455078125,0.369873046875,-0.4493408203125
2023-11-29T21:24:47.677+01:00,3199.9815115,-0.4944610595703125,0.44085693359375,-0.4207916259765625
2023-11-29T21:24:47.697+01:00,3200.0014485,-0.4169769287109375,0.56256103515625,-0.3482208251953125
2023-11-29T21:24:47.717+01:00,3200.0213865,-0.41064453125,0.653594970703125,-0.2510223388671875
2023-11-29T21:24:47.736+01:00,3200.0413235,-0.4269256591796875,0.6959686279296875,-0.0791168212890625
2023-11-29T21:24:47.756+01:00,3200.0612615,-0.5701904296875,0.9350128173828125,-0.139190673828125
2023-11-29T21:24:47.776+01:00,3200.0811995,-0.7678985595703125,1.118026733398438,-0.22564697265625
2023-11-29T21:24:47.796+01:00,3200.1011365,-0.968109130859375,1.194427490234375,-0.2808074951171875
2023-11-29T21:24:47.816+01:00,3200.1210745,-1.089614868164062,1.209182739257812,-0.2267303466796875
2023-11-29T21:24:47.836+01:00,3200.1410115,-1.076736450195312,1.22833251953125,-0.1888885498046875
2023-11-29T21:24:47.856+01:00,3200.1609495,-1.098663330078125,1.24566650390625,-0.208160400390625
2023-11-29T21:24:47.876+01:00,3200.180886541667,-1.116470336914062,1.244873046875,-0.180511474609375
2023-11-29T21:24:47.896+01:00,3200.200824541667,-1.066238403320312,1.120330810546875,-0.0767364501953125
2023-11-29T21:24:47.916+01:00,3200.220761541667,-0.8953704833984375,0.9068603515625,-0.1351470947265625
2023-11-29T21:24:47.936+01:00,3200.240699541667,-0.641876220703125,0.72515869140625,-0.2018585205078125
2023-11-29T21:24:47.956+01:00,3200.260637541667,-0.3361663818359375,0.5887451171875,-0.2515411376953125
2023-11-29T21:24:47.976+01:00,3200.280574541667,-0.0699005126953125,0.4666290283203125,-0.201751708984375
2023-11-29T21:24:47.996+01:00,3200.300512541667,0.00152587890625,0.417724609375,-0.206085205078125
2023-11-29T21:24:48.016+01:00,3200.320449541667,-0.0460205078125,0.312042236328125,-0.4472808837890625
2023-11-29T21:24:48.036+01:00,3200.340387541667,-0.10198974609375,0.3359832763671875,-0.48089599609375
2023-11-29T21:24:48.056+01:00,3200.360324541667,-0.1280517578125,0.2880859375,-0.3194122314453125
2023-11-29T21:24:48.075+01:00,3200.380262541667,-0.2588653564453125,0.447723388671875,-0.4905853271484375
2023-11-29T21:24:48.095+01:00,3200.400199541667,-0.489349365234375,0.3719940185546875,-0.5665740966796875
2023-11-29T21:24:48.116+01:00,3200.420137541667,-0.6559906005859375,0.4364166259765625,-0.5914154052734375
2023-11-29T21:24:48.135+01:00,3200.440075541667,-0.74346923828125,0.602508544921875,-0.58734130859375
2023-11-29T21:24:48.155+01:00,3200.460012541667,-0.778076171875,0.6108856201171875,-0.5164947509765625
2023-11-29T21:24:48.175+01:00,3200.479950541667,-0.7419281005859375,0.7936248779296875,-0.5556182861328125
2023-11-29T21:24:48.195+01:00,3200.499887541667,-0.5587921142578125,0.6224517822265625,-0.387481689453125
2023-11-29T21:24:48.215+01:00,3200.519825541667,-0.196197509765625,0.7218017578125,-0.3947906494140625
2023-11-29T21:24:48.235+01:00,3200.539762541667,0.097930908203125,1.2203369140625,-0.468994140625
2023-11-29T21:24:48.255+01:00,3200.559700541667,0.2747955322265625,1.469009399414062,-0.76605224609375
2023-11-29T21:24:48.275+01:00,3200.579637541667,0.689910888671875,1.29583740234375,-0.8087615966796875
2023-11-29T21:24:48.295+01:00,3200.599575541667,0.985565185546875,1.2091064453125,-1.036651611328125
2023-11-29T21:24:48.315+01:00,3200.619512541667,1.12127685546875,1.414932250976562,-1.427658081054688
2023-11-29T21:24:48.335+01:00,3200.639450541667,1.125946044921875,1.906661987304688,-1.39910888671875
2023-11-29T21:24:48.355+01:00,3200.659388541667,1.026031494140625,1.442916870117188,-1.305206298828125
2023-11-29T21:24:48.374+01:00,3200.679325541667,0.86151123046875,1.090118408203125,-1.348480224609375
2023-11-29T21:24:48.394+01:00,3200.699263541667,0.827117919921875,1.1131591796875,-1.190628051757812
2023-11-29T21:24:48.414+01:00,3200.719200541667,0.79718017578125,0.9471435546875,-0.948577880859375
2023-11-29T21:24:48.434+01:00,3200.739138541667,0.8218994140625,0.5618133544921875,-0.7303314208984375
2023-11-29T21:24:48.454+01:00,3200.759075541667,0.6627960205078125,0.7388153076171875,-0.56982421875
2023-11-29T21:24:48.474+01:00,3200.779013541667,0.53460693359375,0.6497650146484375,-0.33770751953125
2023-11-29T21:24:48.494+01:00,3200.798950541667,0.4847869873046875,0.4827423095703125,-0.1015625
2023-11-29T21:24:48.514+01:00,3200.818888541667,0.415618896484375,0.4775238037109375,0.0775604248046875
2023-11-29T21:24:48.534+01:00,3200.838826541667,0.2506103515625,0.5286407470703125,0.2563934326171875
2023-11-29T21:24:48.554+01:00,3200.858763541667,0.2250823974609375,0.3955535888671875,0.5047149658203125
2023-11-29T21:24:48.574+01:00,3200.878701541667,0.17486572265625,0.4454193115234375,0.6177978515625
2023-11-29T21:24:48.594+01:00,3200.898638541667,0.1283111572265625,0.500457763671875,0.90081787109375
2023-11-29T21:24:48.614+01:00,3200.918576541667,0.1320648193359375,0.4943084716796875,1.063552856445312
2023-11-29T21:24:48.634+01:00,3200.938513541667,0.0340423583984375,0.37347412109375,1.3309326171875
2023-11-29T21:24:48.654+01:00,3200.958451541667,0.069854736328125,0.1965179443359375,1.71502685546875
2023-11-29T21:24:48.673+01:00,3200.978388541667,0.1523284912109375,0.085235595703125,2.005264282226562
2023-11-29T21:24:48.694+01:00,3200.998326541667,-0.07794189453125,-0.39532470703125,2.1304931640625
2023-11-29T21:24:48.713+01:00,3201.018264541667,-0.309417724609375,-0.55126953125,2.382339477539062
2023-11-29T21:24:48.733+01:00,3201.038201541667,-0.4666595458984375,-1.420989990234375,2.123260498046875
2023-11-29T21:24:48.753+01:00,3201.058139541667,-1.382797241210938,-0.9430084228515625,1.6673583984375
2023-11-29T21:24:48.773+01:00,3201.078076541667,-2.820205688476562,0.6598358154296875,-0.254119873046875
2023-11-29T21:24:48.793+01:00,3201.098014541667,-6.029647827148438,5.032440185546875,-2.082626342773438
2023-11-29T21:24:48.813+01:00,3201.117951541667,-4.560211181640625,3.37615966796875,-6.056503295898438
2023-11-29T21:24:48.833+01:00,3201.137889541667,-1.6224365234375,2.610794067382812,2.087203979492188
2023-11-29T21:24:48.853+01:00,3201.157826541667,-0.4403228759765625,3.97100830078125,3.83770751953125
2023-11-29T21:24:48.873+01:00,3201.17776525,-3.345001220703125,2.927276611328125,5.720123291015625
2023-11-29T21:24:48.893+01:00,3201.19770225,-4.390518188476562,-1.77215576171875,2.960098266601562
2023-11-29T21:24:48.913+01:00,3201.21764025,-4.651763916015625,1.423294067382812,1.173004150390625
2023-11-29T21:24:48.933+01:00,3201.23757825,-3.477752685546875,-0.24334716796875,0.041290283203125
2023-11-29T21:24:48.953+01:00,3201.25751525,-2.610443115234375,-0.2487945556640625,-0.5929718017578125
2023-11-29T21:24:48.973+01:00,3201.27745325,-2.024169921875,-0.12628173828125,-1.2615966796875
2023-11-29T21:24:48.993+01:00,3201.29739025,-1.648712158203125,0.1419830322265625,-1.932815551757812
2023-11-29T21:24:49.012+01:00,3201.31732825,-1.27154541015625,-0.096343994140625,-1.9085693359375
2023-11-29T21:24:49.032+01:00,3201.33726525,-1.188980102539062,-0.3790130615234375,-1.6292724609375
2023-11-29T21:24:49.052+01:00,3201.35720325,-1.316070556640625,0.1417694091796875,-1.441116333007812
2023-11-29T21:24:49.072+01:00,3201.37714025,-1.503677368164062,0.6342926025390625,-1.341476440429688
2023-11-29T21:24:49.092+01:00,3201.39707825,-1.574966430664062,0.8254547119140625,-1.3416748046875
2023-11-29T21:24:49.112+01:00,3201.41701525,-1.334762573242188,0.9021453857421875,-1.33746337890625
2023-11-29T21:24:49.132+01:00,3201.43695325,-1.284988403320312,0.9399566650390625,-1.270980834960938
2023-11-29T21:24:49.152+01:00,3201.45689125,-1.316818237304688,0.939544677734375,-1.327072143554688
2023-11-29T21:24:49.172+01:00,3201.47682825,-1.135208129882812,0.8383026123046875,-1.332763671875
2023-11-29T21:24:49.192+01:00,3201.49676625,-0.9413604736328125,0.7563629150390625,-1.340789794921875
2023-11-29T21:24:49.212+01:00,3201.51670325,-0.7138671875,0.7683868408203125,-1.216827392578125
2023-11-29T21:24:49.232+01:00,3201.53664125,-0.8469696044921875,0.8773040771484375,-0.8185272216796875
2023-11-29T21:24:49.252+01:00,3201.55657825,-0.7385711669921875,0.9616241455078125,-0.4981536865234375
2023-11-29T21:24:49.272+01:00,3201.57651625,-0.618072509765625,1.036697387695312,-0.4635467529296875
2023-11-29T21:24:49.292+01:00,3201.59645325,-0.579010009765625,0.935760498046875,-0.3050537109375
2023-11-29T21:24:49.312+01:00,3201.61639125,-0.7988433837890625,0.97918701171875,-0.09552001953125
2023-11-29T21:24:49.331+01:00,3201.63632825,-0.9747314453125,1.164520263671875,-0.042327880859375
2023-11-29T21:24:49.352+01:00,3201.65626625,-0.9989166259765625,1.413543701171875,-0.007080078125
2023-11-29T21:24:49.371+01:00,3201.67620425,-1.126998901367188,1.57403564453125,0.04833984375
2023-11-29T21:24:49.391+01:00,3201.69614125,-1.192138671875,1.4990234375,0.0316162109375
2023-11-29T21:24:49.411+01:00,3201.71607925,-1.059967041015625,1.2286376953125,0.0920867919921875
2023-11-29T21:24:49.431+01:00,3201.73601625,-0.970062255859375,1.014877319335938,0.1023406982421875
2023-11-29T21:24:49.451+01:00,3201.75595425,-0.870361328125,0.7523040771484375,0.12603759765625
2023-11-29T21:24:49.471+01:00,3201.77589125,-0.7546539306640625,0.595367431640625,0.097747802734375
2023-11-29T21:24:49.491+01:00,3201.79582925,-0.705352783203125,0.4919891357421875,0.1218719482421875
2023-11-29T21:24:49.511+01:00,3201.81576625,-0.7334136962890625,0.4193878173828125,0.2571868896484375
2023-11-29T21:24:49.531+01:00,3201.83570425,-0.6420745849609375,0.5788116455078125,0.4113006591796875
2023-11-29T21:24:49.551+01:00,3201.85564225,-0.5017242431640625,0.8813323974609375,0.4461212158203125
2023-11-29T21:24:49.571+01:00,3201.87557925,-0.4022674560546875,1.112319946289062,0.3691253662109375
2023-11-29T21:24:49.591+01:00,3201.89551725,-0.35369873046875,1.095367431640625,0.2979736328125
2023-11-29T21:24:49.611+01:00,3201.91545425,-0.3577728271484375,0.87261962890625,0.231414794921875
2023-11-29T21:24:49.631+01:00,3201.93539225,-0.3828125,0.605438232421875,0.1224822998046875
2023-11-29T21:24:49.651+01:00,3201.95532925,-0.35211181640625,0.4619293212890625,0.0137786865234375
2023-11-29T21:24:49.670+01:00,3201.97526725,-0.3656463623046875,0.59033203125,-0.0920257568359375
2023-11-29T21:24:49.690+01:00,3201.99520425,-0.3624267578125,0.92486572265625,0.01373291015625
2023-11-29T21:24:49.710+01:00,3202.01514225,-0.3644866943359375,0.76434326171875,0.2202911376953125
2023-11-29T21:24:49.730+01:00,3202.03507925,-0.40692138671875,0.36834716796875,0.12188720703125
2023-11-29T21:24:49.750+01:00,3202.05501725,-0.38800048828125,0.544952392578125,-0.0676727294921875
2023-11-29T21:24:49.770+01:00,3202.07495425,-0.3787078857421875,0.90606689453125,-0.1119384765625
2023-11-29T21:24:49.790+01:00,3202.09489225,-0.30267333984375,0.85821533203125,-0.063385009765625
2023-11-29T21:24:49.810+01:00,3202.11483025,-0.2117156982421875,0.743133544921875,0.0159454345703125
2023-11-29T21:24:49.830+01:00,3202.13476725,-0.223663330078125,0.7447052001953125,0.0673828125
2023-11-29T21:24:49.850+01:00,3202.15470525,-0.2521820068359375,0.83819580078125,0.0818023681640625
2023-11-29T21:24:49.870+01:00,3202.174642,-0.2894439697265625,0.963104248046875,0.0424041748046875
2023-11-29T21:24:49.890+01:00,3202.19458,-0.34295654296875,1.056015014648438,0.0298614501953125
2023-11-29T21:24:49.910+01:00,3202.214517,-0.3796234130859375,1.055007934570312,-0.0459747314453125
2023-11-29T21:24:49.930+01:00,3202.234455,-0.3412322998046875,1.019180297851562,-0.1579132080078125
2023-11-29T21:24:49.950+01:00,3202.254392,-0.3034820556640625,1.038040161132812,-0.2040863037109375
2023-11-29T21:24:49.969+01:00,3202.27433,-0.30609130859375,1.006027221679688,-0.0933837890625
2023-11-29T21:24:49.989+01:00,3202.294267,-0.3507080078125,1.005340576171875,-0.029693603515625
2023-11-29T21:24:50.009+01:00,3202.314205,-0.423583984375,1.088897705078125,-0.025146484375
2023-11-29T21:24:50.029+01:00,3202.334143,-0.4973602294921875,1.147262573242188,-0.0366668701171875
2023-11-29T21:24:50.049+01:00,3202.35408,-0.5466766357421875,1.158523559570312,-0.04705810546875
2023-11-29T21:24:50.069+01:00,3202.374018,-0.5394439697265625,1.179702758789062,-0.09027099609375
2023-11-29T21:24:50.089+01:00,3202.393955,-0.5091094970703125,1.177444458007812,-0.159332275390625
2023-11-29T21:24:50.109+01:00,3202.413893,-0.441497802734375,1.081924438476562,-0.242706298828125
2023-11-29T21:24:50.129+01:00,3202.43383,-0.3631134033203125,0.9450836181640625,-0.2757415771484375
2023-11-29T21:24:50.149+01:00,3202.453768,-0.3045196533203125,0.88970947265625,-0.274322509765625
2023-11-29T21:24:50.169+01:00,3202.473705,-0.2624969482421875,0.830810546875,-0.29962158203125
2023-11-29T21:24:50.189+01:00,3202.493643,-0.239654541015625,0.8064727783203125,-0.30096435546875
2023-11-29T21:24:50.209+01:00,3202.51358,-0.212005615234375,0.7820587158203125,-0.3004913330078125
2023-11-29T21:24:50.229+01:00,3202.533518,-0.19598388671875,0.7598114013671875,-0.283782958984375
2023-11-29T21:24:50.249+01:00,3202.553455,-0.2069091796875,0.8502349853515625,-0.3127593994140625
2023-11-29T21:24:50.269+01:00,3202.573393,-0.2044525146484375,0.947998046875,-0.35369873046875
2023-11-29T21:24:50.288+01:00,3202.593331,-0.1561126708984375,0.93231201171875,-0.3890228271484375
2023-11-29T21:24:50.308+01:00,3202.613268,-0.1641693115234375,0.9519500732421875,-0.4156951904296875
2023-11-29T21:24:50.328+01:00,3202.633206,-0.15899658203125,1.053451538085938,-0.4525909423828125
2023-11-29T21:24:50.348+01:00,3202.653143,-0.1448822021484375,0.9135589599609375,-0.29888916015625
2023-11-29T21:24:50.368+01:00,3202.673081,-0.116607666015625,0.7212677001953125,-0.154876708984375
2023-11-29T21:24:50.388+01:00,3202.693018,-0.180419921875,0.9973602294921875,-0.222625732421875
2023-11-29T21:24:50.408+01:00,3202.712956,-0.1180419921875,1.3037109375,-0.339447021484375
2023-11-29T21:24:50.428+01:00,3202.732893,-0.0859222412109375,1.22613525390625,-0.5257110595703125
2023-11-29T21:24:50.448+01:00,3202.752831,-0.165374755859375,1.179824829101562,-0.6447296142578125
2023-11-29T21:24:50.468+01:00,3202.772768,-0.239959716796875,1.087997436523438,-0.6974945068359375
2023-11-29T21:24:50.488+01:00,3202.792706,-0.11346435546875,1.040542602539062,-0.7843475341796875
2023-11-29T21:24:50.508+01:00,3202.812644,0.0224151611328125,1.031463623046875,-0.8363494873046875
2023-11-29T21:24:50.528+01:00,3202.832581,0.056060791015625,1.120956420898438,-0.8664703369140625
2023-11-29T21:24:50.548+01:00,3202.852519,0.1112060546875,0.9593048095703125,-0.96966552734375
2023-11-29T21:24:50.568+01:00,3202.872456,0.0755767822265625,0.6690673828125,-0.964019775390625
2023-11-29T21:24:50.587+01:00,3202.892394,0.1466827392578125,0.4634246826171875,-0.9617919921875
2023-11-29T21:24:50.607+01:00,3202.912331,0.218780517578125,0.38372802734375,-0.8836517333984375
2023-11-29T21:24:50.628+01:00,3202.932269,0.321533203125,0.3726806640625,-0.7576141357421875
2023-11-29T21:24:50.648+01:00,3202.952206,0.351531982421875,0.167572021484375,-0.6551361083984375
2023-11-29T21:24:50.667+01:00,3202.972144,0.3688507080078125,0.0340118408203125,-0.613311767578125
2023-11-29T21:24:50.687+01:00,3202.992081,0.416900634765625,0.058380126953125,-0.6361083984375
2023-11-29T21:24:50.707+01:00,3203.012019,0.4529571533203125,0.14251708984375,-0.697418212890625
2023-11-29T21:24:50.727+01:00,3203.031956,0.4600372314453125,0.291107177734375,-0.759429931640625
2023-11-29T21:24:50.747+01:00,3203.051894,0.425506591796875,0.467620849609375,-0.7849273681640625
2023-11-29T21:24:50.767+01:00,3203.071831,0.433685302734375,0.653564453125,-0.8463897705078125
2023-11-29T21:24:50.787+01:00,3203.091769,0.4668426513671875,1.099227905273438,-1.0511474609375
2023-11-29T21:24:50.807+01:00,3203.111707,0.444427490234375,1.707855224609375,-1.277847290039062
2023-11-29T21:24:50.827+01:00,3203.131644,0.3667449951171875,2.028656005859375,-1.401214599609375
2023-11-29T21:24:50.847+01:00,3203.151582,0.189849853515625,2.303680419921875,-1.652740478515625
2023-11-29T21:24:50.870+01:00,3203.171519666667,0.1561737060546875,2.031723022460938,-1.709457397460938
2023-11-29T21:24:50.887+01:00,3203.191457666667,0.3154296875,1.760635375976562,-1.750137329101562
2023-11-29T21:24:50.907+01:00,3203.211394666667,0.383880615234375,1.36016845703125,-1.650100708007812
2023-11-29T21:24:50.926+01:00,3203.231332666667,0.5283660888671875,0.93359375,-1.400894165039062
2023-11-29T21:24:50.946+01:00,3203.251269666667,0.5666961669921875,0.8867645263671875,-1.248916625976562
2023-11-29T21:24:50.966+01:00,3203.271207666667,0.415557861328125,0.873565673828125,-1.126052856445312
2023-11-29T21:24:50.986+01:00,3203.291144666667,0.2490234375,0.8532562255859375,-0.97650146484375
2023-11-29T21:24:51.006+01:00,3203.311082666667,0.1373291015625,0.8822784423828125,-0.845916748046875
2023-11-29T21:24:51.026+01:00,3203.331019666667,0.12908935546875,0.8303375244140625,-0.6142578125
2023-11-29T21:24:51.046+01:00,3203.350957666667,-0.0141448974609375,0.9003143310546875,-0.5671539306640625
2023-11-29T21:24:51.066+01:00,3203.370895666667,-0.145233154296875,0.9686431884765625,-0.490875244140625
2023-11-29T21:24:51.086+01:00,3203.390832666667,-0.0574188232421875,0.9210662841796875,-0.394134521484375
2023-11-29T21:24:51.106+01:00,3203.410770666667,-0.1146392822265625,0.5975799560546875,-0.0343780517578125
2023-11-29T21:24:51.126+01:00,3203.430707666667,-0.2467498779296875,0.147064208984375,0.0395660400390625
2023-11-29T21:24:51.146+01:00,3203.450645666667,0.197418212890625,-0.3439483642578125,0.2354736328125
2023-11-29T21:24:51.166+01:00,3203.470582666667,0.5766754150390625,-0.592864990234375,0.586517333984375
2023-11-29T21:24:51.186+01:00,3203.490520666667,0.554443359375,-0.910400390625,0.517486572265625
2023-11-29T21:24:51.206+01:00,3203.510457666667,0.6893157958984375,-0.97821044921875,0.6260986328125
2023-11-29T21:24:51.226+01:00,3203.530395666667,0.8813629150390625,-1.1488037109375,0.635986328125
2023-11-29T21:24:51.246+01:00,3203.550332666667,0.7626800537109375,-1.220230102539062,0.604248046875
2023-11-29T21:24:51.265+01:00,3203.570270666667,0.3978424072265625,-1.134613037109375,0.6674041748046875
2023-11-29T21:24:51.285+01:00,3203.590207666667,0.0262451171875,-1.069015502929688,0.917388916015625
2023-11-29T21:24:51.305+01:00,3203.610145666667,-0.45709228515625,-1.346893310546875,1.472259521484375
2023-11-29T21:24:51.325+01:00,3203.630082666667,-1.253005981445312,-1.625335693359375,2.161285400390625
2023-11-29T21:24:51.345+01:00,3203.650020666667,-2.32513427734375,-1.706573486328125,2.631820678710938
2023-11-29T21:24:51.365+01:00,3203.669957666667,-3.175582885742188,-1.372283935546875,2.250885009765625
2023-11-29T21:24:51.385+01:00,3203.689895666667,-3.684036254882812,-0.37841796875,1.05743408203125
2023-11-29T21:24:51.405+01:00,3203.709833666667,-4.565597534179688,0.7265472412109375,-0.454315185546875
2023-11-29T21:24:51.425+01:00,3203.729770666667,-4.8951416015625,0.9909820556640625,-1.596633911132812
2023-11-29T21:24:51.445+01:00,3203.749708666667,-4.353485107421875,0.7501983642578125,-1.522079467773438
2023-11-29T21:24:51.465+01:00,3203.769645666667,-4.648361206054688,1.910873413085938,-2.522659301757812
2023-11-29T21:24:51.485+01:00,3203.789583666667,-3.487075805664062,1.107742309570312,-1.94171142578125
2023-11-29T21:24:51.505+01:00,3203.809520666667,-3.578521728515625,0.43902587890625,-1.708480834960938
2023-11-29T21:24:51.525+01:00,3203.829458666667,-3.903518676757812,0.795989990234375,-1.682815551757812
2023-11-29T21:24:51.545+01:00,3203.849395666667,-3.779327392578125,1.373779296875,-1.972640991210938
2023-11-29T21:24:51.564+01:00,3203.869333666667,-3.217132568359375,1.196029663085938,-1.913848876953125
2023-11-29T21:24:51.584+01:00,3203.889270666667,-3.222869873046875,0.430938720703125,-1.5029296875
2023-11-29T21:24:51.604+01:00,3203.909208666667,-3.5821533203125,0.848541259765625,-1.459457397460938
2023-11-29T21:24:51.624+01:00,3203.929145666667,-3.472885131835938,1.070068359375,-1.528762817382812
2023-11-29T21:24:51.644+01:00,3203.949083666667,-3.55108642578125,1.089462280273438,-1.399871826171875
2023-11-29T21:24:51.664+01:00,3203.969020666667,-3.297607421875,1.235733032226562,-1.546600341796875
2023-11-29T21:24:51.684+01:00,3203.988958666667,-2.857009887695312,1.568435668945312,-1.941802978515625
2023-11-29T21:24:51.704+01:00,3204.008895666667,-1.829864501953125,1.48858642578125,-1.345123291015625
2023-11-29T21:24:51.724+01:00,3204.028833666667,-1.563552856445312,1.40167236328125,-0.6465301513671875
2023-11-29T21:24:51.744+01:00,3204.048771666667,-0.812164306640625,1.7506103515625,-0.474761962890625
2023-11-29T21:24:51.764+01:00,3204.068708666667,-0.695220947265625,1.269363403320312,-0.642333984375
2023-11-29T21:24:51.784+01:00,3204.088646666667,-0.8521728515625,0.4746246337890625,-0.3442535400390625
2023-11-29T21:24:51.804+01:00,3204.108583666667,-0.76007080078125,0.1845245361328125,-0.2934417724609375
2023-11-29T21:24:51.824+01:00,3204.128521666667,-0.7532501220703125,0.5102691650390625,-0.3748321533203125
2023-11-29T21:24:51.844+01:00,3204.148458666667,-0.7735137939453125,0.825469970703125,-0.267120361328125
2023-11-29T21:24:51.864+01:00,3204.168396666667,-0.6752471923828125,0.921661376953125,-0.16729736328125
2023-11-29T21:24:51.883+01:00,3204.1883335,-0.6078033447265625,0.9325103759765625,-0.1392669677734375
2023-11-29T21:24:51.903+01:00,3204.2082715,-0.593353271484375,0.8909912109375,-0.1231842041015625
2023-11-29T21:24:51.923+01:00,3204.2282085,-0.5982208251953125,0.801025390625,-0.1378631591796875
2023-11-29T21:24:51.943+01:00,3204.2481465,-0.6336517333984375,0.69598388671875,-0.14849853515625
2023-11-29T21:24:51.963+01:00,3204.2680835,-0.6901397705078125,0.62652587890625,-0.184173583984375
2023-11-29T21:24:51.983+01:00,3204.2880215,-0.77899169921875,0.586334228515625,-0.19677734375
2023-11-29T21:24:52.003+01:00,3204.3079585,-0.8668670654296875,0.5026702880859375,-0.2093963623046875
2023-11-29T21:24:52.023+01:00,3204.3278965,-0.989715576171875,0.427215576171875,-0.2077484130859375
2023-11-29T21:24:52.043+01:00,3204.3478335,-1.117630004882812,0.489959716796875,-0.2097625732421875
2023-11-29T21:24:52.063+01:00,3204.3677715,-1.240142822265625,0.5334320068359375,-0.2140655517578125
2023-11-29T21:24:52.083+01:00,3204.3877095,-1.347198486328125,0.5423431396484375,-0.221038818359375
2023-11-29T21:24:52.103+01:00,3204.4076465,-1.503646850585938,0.558502197265625,-0.2615814208984375
2023-11-29T21:24:52.123+01:00,3204.4275845,-1.687530517578125,0.53778076171875,-0.3355560302734375
2023-11-29T21:24:52.143+01:00,3204.4475215,-1.784133911132812,0.437164306640625,-0.3776397705078125
2023-11-29T21:24:52.163+01:00,3204.4674595,-1.7606201171875,0.261505126953125,-0.3147125244140625
2023-11-29T21:24:52.183+01:00,3204.4873965,-1.535049438476562,0.161224365234375,-0.24072265625
2023-11-29T21:24:52.202+01:00,3204.5073345,-1.281234741210938,0.16033935546875,-0.309967041015625
2023-11-29T21:24:52.222+01:00,3204.5272715,-1.0531005859375,0.315277099609375,-0.319976806640625
2023-11-29T21:24:52.242+01:00,3204.5472095,-0.9681854248046875,0.3038330078125,-0.2947540283203125
2023-11-29T21:24:52.262+01:00,3204.5671465,-0.987457275390625,0.2716217041015625,-0.272491455078125
2023-11-29T21:24:52.282+01:00,3204.5870845,-1.060104370117188,0.2842559814453125,-0.3523101806640625
2023-11-29T21:24:52.302+01:00,3204.6070215,-0.9765625,0.17547607421875,-0.361572265625
2023-11-29T21:24:52.322+01:00,3204.6269595,-0.7924957275390625,0.02362060546875,-0.38165283203125
2023-11-29T21:24:52.342+01:00,3204.6468965,-0.7413787841796875,0.0630950927734375,-0.4113006591796875
2023-11-29T21:24:52.362+01:00,3204.6668345,-0.8152618408203125,0.198089599609375,-0.4350128173828125
2023-11-29T21:24:52.382+01:00,3204.6867715,-0.8259429931640625,0.239349365234375,-0.4666290283203125
2023-11-29T21:24:52.402+01:00,3204.7067095,-0.7807159423828125,0.1906585693359375,-0.4652862548828125
2023-11-29T21:24:52.422+01:00,3204.7266475,-0.73529052734375,0.1369476318359375,-0.43804931640625
2023-11-29T21:24:52.442+01:00,3204.7465845,-0.7108001708984375,0.167694091796875,-0.396026611328125
2023-11-29T21:24:52.462+01:00,3204.7665225,-0.730010986328125,0.2041473388671875,-0.4073486328125
2023-11-29T21:24:52.482+01:00,3204.7864595,-0.74786376953125,0.18505859375,-0.3616943359375
2023-11-29T21:24:52.501+01:00,3204.8063975,-0.7767181396484375,0.133087158203125,-0.2902679443359375
2023-11-29T21:24:52.522+01:00,3204.8263345,-0.72161865234375,0.139556884765625,-0.2684783935546875
2023-11-29T21:24:52.541+01:00,3204.8462725,-0.71759033203125,0.24371337890625,-0.277374267578125
2023-11-29T21:24:52.561+01:00,3204.8662095,-0.75177001953125,0.377105712890625,-0.3564910888671875
2023-11-29T21:24:52.581+01:00,3204.8861475,-0.7574005126953125,0.43023681640625,-0.362518310546875
2023-11-29T21:24:52.601+01:00,3204.9060845,-0.771240234375,0.429931640625,-0.2864227294921875
2023-11-29T21:24:52.621+01:00,3204.9260225,-0.8196563720703125,0.39495849609375,-0.257781982421875
2023-11-29T21:24:52.641+01:00,3204.9459595,-0.9050750732421875,0.412567138671875,-0.3124847412109375
2023-11-29T21:24:52.661+01:00,3204.9658975,-1.024871826171875,0.48974609375,-0.3928375244140625
2023-11-29T21:24:52.681+01:00,3204.9858345,-1.136459350585938,0.581268310546875,-0.435302734375
2023-11-29T21:24:52.701+01:00,3205.0057725,-1.189254760742188,0.5805206298828125,-0.432830810546875
2023-11-29T21:24:52.721+01:00,3205.0257095,-1.22955322265625,0.5871124267578125,-0.433837890625
2023-11-29T21:24:52.741+01:00,3205.0456475,-1.23150634765625,0.67034912109375,-0.4482269287109375
2023-11-29T21:24:52.761+01:00,3205.0655845,-1.204803466796875,0.668609619140625,-0.361175537109375
2023-11-29T21:24:52.781+01:00,3205.0855225,-1.1700439453125,0.4500732421875,-0.2365875244140625
2023-11-29T21:24:52.801+01:00,3205.1054605,-1.199508666992188,0.5339813232421875,-0.3258819580078125
2023-11-29T21:24:52.820+01:00,3205.1253975,-1.220016479492188,0.6759033203125,-0.357666015625
2023-11-29T21:24:52.841+01:00,3205.1453355,-1.19805908203125,0.5804290771484375,-0.263885498046875
2023-11-29T21:24:52.860+01:00,3205.1652725,-1.11785888671875,0.5616912841796875,-0.2838592529296875
2023-11-29T21:24:52.880+01:00,3205.18521,-1.022979736328125,0.5501251220703125,-0.3160247802734375
2023-11-29T21:24:52.900+01:00,3205.205147,-0.911285400390625,0.5676422119140625,-0.3232421875
2023-11-29T21:24:52.920+01:00,3205.225085,-0.7864227294921875,0.5839691162109375,-0.349090576171875
2023-11-29T21:24:52.940+01:00,3205.245022,-0.688079833984375,0.5188140869140625,-0.3165435791015625
2023-11-29T21:24:52.960+01:00,3205.26496,-0.601226806640625,0.4734344482421875,-0.2813568115234375
2023-11-29T21:24:52.980+01:00,3205.284897,-0.57659912109375,0.4957275390625,-0.3104248046875
2023-11-29T21:24:53.000+01:00,3205.304835,-0.63201904296875,0.48260498046875,-0.3330841064453125
2023-11-29T21:24:53.020+01:00,3205.324772,-0.7230072021484375,0.4603271484375,-0.3471221923828125
2023-11-29T21:24:53.040+01:00,3205.34471,-0.84686279296875,0.4764862060546875,-0.377593994140625
2023-11-29T21:24:53.060+01:00,3205.364647,-0.9880218505859375,0.4874725341796875,-0.4113616943359375
2023-11-29T21:24:53.080+01:00,3205.384585,-1.112152099609375,0.4534759521484375,-0.44354248046875
2023-11-29T21:24:53.100+01:00,3205.404522,-1.2154541015625,0.3678741455078125,-0.4132537841796875
2023-11-29T21:24:53.120+01:00,3205.42446,-1.232681274414062,0.2379302978515625,-0.4058837890625
2023-11-29T21:24:53.140+01:00,3205.444398,-1.13079833984375,0.1673583984375,-0.4066925048828125
2023-11-29T21:24:53.159+01:00,3205.464335,-1.00506591796875,0.1568603515625,-0.3723907470703125
2023-11-29T21:24:53.179+01:00,3205.484273,-0.9095306396484375,0.2095184326171875,-0.3648223876953125
2023-11-29T21:24:53.199+01:00,3205.50421,-0.825653076171875,0.229339599609375,-0.3260650634765625
2023-11-29T21:24:53.219+01:00,3205.524148,-0.76812744140625,0.295501708984375,-0.29803466796875
2023-11-29T21:24:53.239+01:00,3205.544085,-0.7451171875,0.365203857421875,-0.285797119140625
2023-11-29T21:24:53.259+01:00,3205.564023,-0.7373199462890625,0.3805694580078125,-0.2906951904296875
2023-11-29T21:24:53.279+01:00,3205.58396,-0.7132720947265625,0.42095947265625,-0.29010009765625
2023-11-29T21:24:53.299+01:00,3205.603898,-0.715789794921875,0.4448394775390625,-0.3137359619140625
2023-11-29T21:24:53.319+01:00,3205.623835,-0.7093048095703125,0.4569091796875,-0.333587646484375
2023-11-29T21:24:53.339+01:00,3205.643773,-0.693267822265625,0.463165283203125,-0.3095550537109375
2023-11-29T21:24:53.359+01:00,3205.66371,-0.686370849609375,0.44952392578125,-0.307830810546875
2023-11-29T21:24:53.379+01:00,3205.683648,-0.6632232666015625,0.319610595703125,-0.304840087890625
2023-11-29T21:24:53.399+01:00,3205.703585,-0.678253173828125,0.2649688720703125,-0.2885894775390625
2023-11-29T21:24:53.419+01:00,3205.723523,-0.682708740234375,0.209320068359375,-0.27874755859375
2023-11-29T21:24:53.439+01:00,3205.74346,-0.7833251953125,0.355377197265625,-0.2081146240234375
2023-11-29T21:24:53.459+01:00,3205.763398,-0.8592529296875,0.3541259765625,-0.227447509765625
2023-11-29T21:24:53.478+01:00,3205.783335,-0.898406982421875,0.3342437744140625,-0.3039093017578125
2023-11-29T21:24:53.498+01:00,3205.803273,-0.9298248291015625,0.3335723876953125,-0.28790283203125
2023-11-29T21:24:53.518+01:00,3205.82321,-1.036346435546875,0.3799896240234375,-0.29595947265625
2023-11-29T21:24:53.538+01:00,3205.843148,-1.127090454101562,0.6256561279296875,-0.4197845458984375
2023-11-29T21:24:53.558+01:00,3205.863086,-1.078994750976562,0.7298126220703125,-0.4510498046875
2023-11-29T21:24:53.578+01:00,3205.883023,-1.06365966796875,0.3573455810546875,-0.280059814453125
2023-11-29T21:24:53.598+01:00,3205.902961,-1.00543212890625,0.3310699462890625,-0.1845855712890625
2023-11-29T21:24:53.618+01:00,3205.922898,-1.005157470703125,0.510650634765625,-0.347991943359375
2023-11-29T21:24:53.638+01:00,3205.942836,-1.005218505859375,0.445953369140625,-0.3876190185546875
2023-11-29T21:24:53.658+01:00,3205.962773,-0.9814910888671875,0.3931427001953125,-0.3726806640625
2023-11-29T21:24:53.678+01:00,3205.982711,-0.947662353515625,0.46160888671875,-0.38018798828125
2023-11-29T21:24:53.698+01:00,3206.002648,-0.8837890625,0.5310211181640625,-0.38360595703125
2023-11-29T21:24:53.718+01:00,3206.022586,-0.7636871337890625,0.541168212890625,-0.43359375
2023-11-29T21:24:53.738+01:00,3206.042523,-0.645599365234375,0.4968109130859375,-0.453460693359375
2023-11-29T21:24:53.758+01:00,3206.062461,-0.55181884765625,0.42950439453125,-0.417266845703125
2023-11-29T21:24:53.777+01:00,3206.082398,-0.51513671875,0.3920745849609375,-0.279510498046875
2023-11-29T21:24:53.797+01:00,3206.102336,-0.6090850830078125,0.41265869140625,-0.229461669921875
2023-11-29T21:24:53.817+01:00,3206.122273,-0.7352447509765625,0.556884765625,-0.295135498046875
2023-11-29T21:24:53.837+01:00,3206.142211,-0.77471923828125,0.5024261474609375,-0.3132476806640625
2023-11-29T21:24:53.857+01:00,3206.162148,-0.926666259765625,0.3379669189453125,-0.29241943359375
2023-11-29T21:24:53.877+01:00,3206.182086791667,-1.085052490234375,0.3074493408203125,-0.235504150390625
2023-11-29T21:24:53.897+01:00,3206.202023791667,-1.178268432617188,0.48236083984375,-0.2301025390625
2023-11-29T21:24:53.917+01:00,3206.221961791667,-1.2216796875,0.620361328125,-0.2379608154296875
2023-11-29T21:24:53.937+01:00,3206.241899791667,-1.166015625,0.5849609375,-0.14520263671875
2023-11-29T21:24:53.957+01:00,3206.261836791667,-1.0228271484375,0.49578857421875,-0.0629730224609375
2023-11-29T21:24:53.977+01:00,3206.281774791667,-0.895263671875,0.4537353515625,-0.0750732421875
2023-11-29T21:24:53.997+01:00,3206.301711791667,-0.8157806396484375,0.4084625244140625,-0.1417236328125
2023-11-29T21:24:54.017+01:00,3206.321649791667,-0.7675018310546875,0.2235870361328125,-0.137847900390625
2023-11-29T21:24:54.037+01:00,3206.341586791667,-0.769073486328125,0.0883941650390625,-0.128387451171875
2023-11-29T21:24:54.057+01:00,3206.361524791667,-0.8006134033203125,0.0723419189453125,-0.1273956298828125
2023-11-29T21:24:54.077+01:00,3206.381461791667,-0.8328094482421875,0.1594390869140625,-0.156646728515625
2023-11-29T21:24:54.097+01:00,3206.401399791667,-0.8524169921875,0.2586517333984375,-0.1700592041015625
2023-11-29T21:24:54.116+01:00,3206.421336791667,-0.8830413818359375,0.3285980224609375,-0.17840576171875
2023-11-29T21:24:54.136+01:00,3206.441274791667,-0.907745361328125,0.3600921630859375,-0.1883697509765625
2023-11-29T21:24:54.156+01:00,3206.461211791667,-0.9198455810546875,0.39373779296875,-0.1927337646484375
2023-11-29T21:24:54.176+01:00,3206.481149791667,-0.9317474365234375,0.39483642578125,-0.2024993896484375
2023-11-29T21:24:54.196+01:00,3206.501086791667,-0.9258880615234375,0.39898681640625,-0.195037841796875
2023-11-29T21:24:54.216+01:00,3206.521024791667,-0.9308319091796875,0.3912811279296875,-0.1707916259765625
2023-11-29T21:24:54.236+01:00,3206.540961791667,-0.9174041748046875,0.3909149169921875,-0.1827850341796875
2023-11-29T21:24:54.256+01:00,3206.560899791667,-0.9091949462890625,0.431854248046875,-0.20391845703125
2023-11-29T21:24:54.276+01:00,3206.580836791667,-0.9030914306640625,0.4316558837890625,-0.22344970703125
2023-11-29T21:24:54.296+01:00,3206.600774791667,-0.892059326171875,0.426361083984375,-0.2469024658203125
2023-11-29T21:24:54.316+01:00,3206.620712791667,-0.9103240966796875,0.41680908203125,-0.27789306640625
2023-11-29T21:24:54.336+01:00,3206.640649791667,-0.9297027587890625,0.4395904541015625,-0.3429107666015625
2023-11-29T21:24:54.356+01:00,3206.660587791667,-0.9439697265625,0.4459075927734375,-0.3668060302734375
2023-11-29T21:24:54.376+01:00,3206.680524791667,-1.06610107421875,0.434967041015625,-0.4056549072265625
2023-11-29T21:24:54.396+01:00,3206.700462791667,-1.176300048828125,0.4476165771484375,-0.4205474853515625
2023-11-29T21:24:54.415+01:00,3206.720399791667,-1.213958740234375,0.4937744140625,-0.4534454345703125
2023-11-29T21:24:54.436+01:00,3206.740337791667,-1.219818115234375,0.531585693359375,-0.4874420166015625
2023-11-29T21:24:54.455+01:00,3206.760274791667,-1.062744140625,0.477935791015625,-0.450347900390625
2023-11-29T21:24:54.475+01:00,3206.780212791667,-0.907745361328125,0.4380645751953125,-0.4478302001953125
2023-11-29T21:24:54.495+01:00,3206.800149791667,-0.785400390625,0.4223785400390625,-0.4447021484375
2023-11-29T21:24:54.515+01:00,3206.820087791667,-0.684051513671875,0.378631591796875,-0.41522216796875
2023-11-29T21:24:54.535+01:00,3206.840024791667,-0.62969970703125,0.3163604736328125,-0.396728515625
2023-11-29T21:24:54.555+01:00,3206.859962791667,-0.6463165283203125,0.312774658203125,-0.4095306396484375
2023-11-29T21:24:54.575+01:00,3206.879899791667,-0.7063446044921875,0.3010406494140625,-0.4074554443359375
2023-11-29T21:24:54.595+01:00,3206.899837791667,-0.7854156494140625,0.3351287841796875,-0.3984375
2023-11-29T21:24:54.615+01:00,3206.919774791667,-0.86407470703125,0.382537841796875,-0.391387939453125
2023-11-29T21:24:54.635+01:00,3206.939712791667,-0.9340667724609375,0.3964996337890625,-0.3639373779296875
2023-11-29T21:24:54.655+01:00,3206.959649791667,-0.991973876953125,0.409423828125,-0.3350982666015625
2023-11-29T21:24:54.675+01:00,3206.979587791667,-1.02044677734375,0.426177978515625,-0.3232269287109375
2023-11-29T21:24:54.695+01:00,3206.999524791667,-0.986358642578125,0.40740966796875,-0.294464111328125
2023-11-29T21:24:54.714+01:00,3207.019462791667,-0.9039459228515625,0.360504150390625,-0.2555389404296875
2023-11-29T21:24:54.735+01:00,3207.039399791667,-0.8215484619140625,0.374481201171875,-0.259033203125
2023-11-29T21:24:54.754+01:00,3207.059337791667,-0.7718505859375,0.3243255615234375,-0.2449188232421875
2023-11-29T21:24:54.774+01:00,3207.079275791667,-0.744049072265625,0.2909088134765625,-0.241058349609375
2023-11-29T21:24:54.795+01:00,3207.099212791667,-0.758392333984375,0.309661865234375,-0.2618560791015625
2023-11-29T21:24:54.814+01:00,3207.119150791667,-0.81103515625,0.279205322265625,-0.2606048583984375
2023-11-29T21:24:54.834+01:00,3207.139087791667,-0.86114501953125,0.2554473876953125,-0.260498046875
2023-11-29T21:24:54.854+01:00,3207.159025791667,-0.8935699462890625,0.2850494384765625,-0.271209716796875
2023-11-29T21:24:54.874+01:00,3207.178962541667,-0.8860015869140625,0.279022216796875,-0.2758636474609375
2023-11-29T21:24:54.894+01:00,3207.198900541667,-0.856414794921875,0.299896240234375,-0.2896881103515625
2023-11-29T21:24:54.914+01:00,3207.218837541667,-0.852081298828125,0.3162994384765625,-0.30181884765625
2023-11-29T21:24:54.934+01:00,3207.238775541667,-0.868255615234375,0.3552398681640625,-0.3388214111328125
2023-11-29T21:24:54.954+01:00,3207.258712541667,-0.894989013671875,0.37103271484375,-0.37042236328125
2023-11-29T21:24:54.974+01:00,3207.278650541667,-0.9368133544921875,0.3607330322265625,-0.3841552734375
2023-11-29T21:24:54.994+01:00,3207.298587541667,-0.9365081787109375,0.3683929443359375,-0.40234375
2023-11-29T21:24:55.014+01:00,3207.318525541667,-0.955596923828125,0.3325347900390625,-0.446075439453125
2023-11-29T21:24:55.034+01:00,3207.338462541667,-0.9979705810546875,0.3608856201171875,-0.4748382568359375
2023-11-29T21:24:55.053+01:00,3207.358400541667,-1.000381469726562,0.431365966796875,-0.477020263671875
2023-11-29T21:24:55.073+01:00,3207.378337541667,-0.9543304443359375,0.4675445556640625,-0.4373016357421875
2023-11-29T21:24:55.093+01:00,3207.398275541667,-0.90838623046875,0.4433746337890625,-0.391326904296875
2023-11-29T21:24:55.113+01:00,3207.418212541667,-0.8717498779296875,0.41986083984375,-0.3664398193359375
2023-11-29T21:24:55.133+01:00,3207.438150541667,-0.828125,0.4171600341796875,-0.326446533203125
2023-11-29T21:24:55.153+01:00,3207.458087541667,-0.8039703369140625,0.4080810546875,-0.2802276611328125
2023-11-29T21:24:55.173+01:00,3207.478025541667,-0.7828826904296875,0.3818206787109375,-0.2392578125
2023-11-29T21:24:55.193+01:00,3207.497962541667,-0.78948974609375,0.37188720703125,-0.209259033203125
2023-11-29T21:24:55.213+01:00,3207.517900541667,-0.8193206787109375,0.383819580078125,-0.1921539306640625
2023-11-29T21:24:55.233+01:00,3207.537838541667,-0.852386474609375,0.3799285888671875,-0.1692352294921875
2023-11-29T21:24:55.253+01:00,3207.557775541667,-0.9042205810546875,0.3768768310546875,-0.161895751953125
2023-11-29T21:24:55.273+01:00,3207.577713541667,-0.9719696044921875,0.394683837890625,-0.17083740234375
2023-11-29T21:24:55.293+01:00,3207.597650541667,-1.016891479492188,0.42987060546875,-0.194793701171875
2023-11-29T21:24:55.313+01:00,3207.617588541667,-1.001861572265625,0.42877197265625,-0.195068359375
2023-11-29T21:24:55.333+01:00,3207.637525541667,-0.9525299072265625,0.4082183837890625,-0.1864166259765625
2023-11-29T21:24:55.353+01:00,3207.657463541667,-0.9225311279296875,0.4054718017578125,-0.1837310791015625
2023-11-29T21:24:55.373+01:00,3207.677400541667,-0.9124755859375,0.43096923828125,-0.184722900390625
2023-11-29T21:24:55.392+01:00,3207.697338541667,-0.9314727783203125,0.412811279296875,-0.1644439697265625
2023-11-29T21:24:55.412+01:00,3207.717275541667,-0.9737396240234375,0.4184722900390625,-0.153228759765625
2023-11-29T21:24:55.432+01:00,3207.737213541667,-0.9831695556640625,0.3782806396484375,-0.1215972900390625
2023-11-29T21:24:55.452+01:00,3207.757150541667,-0.89599609375,0.3154144287109375,-0.0918731689453125
2023-11-29T21:24:55.472+01:00,3207.777088541667,-0.94256591796875,0.284515380859375,-0.0899658203125
2023-11-29T21:24:55.492+01:00,3207.797025541667,-1.050491333007812,0.3003997802734375,-0.0852813720703125
2023-11-29T21:24:55.512+01:00,3207.816963541667,-1.04180908203125,0.2639312744140625,-0.0632476806640625
2023-11-29T21:24:55.532+01:00,3207.836900541667,-0.985137939453125,0.2252960205078125,-0.0615234375
2023-11-29T21:24:55.552+01:00,3207.856838541667,-0.95111083984375,0.2413482666015625,-0.088470458984375
2023-11-29T21:24:55.572+01:00,3207.876775541667,-0.95831298828125,0.2665252685546875,-0.125885009765625
2023-11-29T21:24:55.592+01:00,3207.896713541667,-0.9727630615234375,0.300811767578125,-0.168182373046875
2023-11-29T21:24:55.612+01:00,3207.916650541667,-0.9780120849609375,0.31512451171875,-0.2026214599609375
2023-11-29T21:24:55.632+01:00,3207.936588541667,-1.013946533203125,0.3342132568359375,-0.225555419921875
2023-11-29T21:24:55.652+01:00,3207.956525541667,-1.05194091796875,0.347076416015625,-0.2501678466796875
2023-11-29T21:24:55.672+01:00,3207.976463541667,-1.05841064453125,0.347442626953125,-0.2494964599609375
2023-11-29T21:24:55.692+01:00,3207.996400541667,-1.032989501953125,0.3244476318359375,-0.2823486328125
2023-11-29T21:24:55.712+01:00,3208.016338541667,-1.00579833984375,0.3024139404296875,-0.3080902099609375
2023-11-29T21:24:55.731+01:00,3208.036276541667,-0.977020263671875,0.3017120361328125,-0.338531494140625
2023-11-29T21:24:55.751+01:00,3208.056213541667,-0.9402618408203125,0.2734832763671875,-0.3534088134765625
2023-11-29T21:24:55.771+01:00,3208.076151541667,-0.903778076171875,0.2363739013671875,-0.3641815185546875
2023-11-29T21:24:55.791+01:00,3208.096088541667,-0.871856689453125,0.2306365966796875,-0.3929290771484375
2023-11-29T21:24:55.811+01:00,3208.116026541667,-0.8440093994140625,0.2233428955078125,-0.4056854248046875
2023-11-29T21:24:55.831+01:00,3208.135963541667,-0.8200836181640625,0.2172088623046875,-0.4188690185546875
2023-11-29T21:24:55.851+01:00,3208.155901541667,-0.815460205078125,0.212982177734375,-0.416046142578125
2023-11-29T21:24:55.873+01:00,3208.1758375,-0.813568115234375,0.226806640625,-0.42083740234375
2023-11-29T21:24:55.892+01:00,3208.1957755,-0.8205108642578125,0.24249267578125,-0.42724609375
2023-11-29T21:24:55.911+01:00,3208.2157125,-0.83966064453125,0.253143310546875,-0.4201812744140625
2023-11-29T21:24:55.931+01:00,3208.2356505,-0.8948822021484375,0.273040771484375,-0.4083251953125
2023-11-29T21:24:55.951+01:00,3208.2555875,-0.9833221435546875,0.31622314453125,-0.411834716796875
2023-11-29T21:24:55.971+01:00,3208.2755255,-1.053756713867188,0.362762451171875,-0.4042205810546875
2023-11-29T21:24:55.991+01:00,3208.2954625,-1.052719116210938,0.353973388671875,-0.3768310546875
2023-11-29T21:24:56.011+01:00,3208.3154005,-0.973297119140625,0.3324432373046875,-0.3359832763671875
2023-11-29T21:24:56.030+01:00,3208.3353375,-0.874847412109375,0.3333282470703125,-0.3294525146484375
2023-11-29T21:24:56.050+01:00,3208.3552755,-0.8161163330078125,0.3771514892578125,-0.3415679931640625
2023-11-29T21:24:56.070+01:00,3208.3752125,-0.8157806396484375,0.371917724609375,-0.36138916015625
2023-11-29T21:24:56.090+01:00,3208.3951505,-0.8449859619140625,0.328857421875,-0.355804443359375
2023-11-29T21:24:56.110+01:00,3208.4150875,-0.9156951904296875,0.3009796142578125,-0.364288330078125
2023-11-29T21:24:56.130+01:00,3208.4350255,-1.031478881835938,0.2964630126953125,-0.362091064453125
2023-11-29T21:24:56.150+01:00,3208.4549625,-1.1407470703125,0.30572509765625,-0.34906005859375
2023-11-29T21:24:56.170+01:00,3208.4749005,-1.136489868164062,0.293975830078125,-0.303802490234375
2023-11-29T21:24:56.190+01:00,3208.4948375,-1.078887939453125,0.30426025390625,-0.3154754638671875
2023-11-29T21:24:56.210+01:00,3208.5147755,-1.011367797851562,0.3291015625,-0.3453521728515625
2023-11-29T21:24:56.230+01:00,3208.5347135,-0.926727294921875,0.33685302734375,-0.3640289306640625
2023-11-29T21:24:56.250+01:00,3208.5546505,-0.8499755859375,0.335479736328125,-0.3669281005859375
2023-11-29T21:24:56.270+01:00,3208.5745885,-0.7812652587890625,0.3238372802734375,-0.3691864013671875
2023-11-29T21:24:56.290+01:00,3208.5945255,-0.736480712890625,0.321136474609375,-0.3725738525390625
2023-11-29T21:24:56.310+01:00,3208.6144635,-0.7358551025390625,0.316802978515625,-0.3790435791015625
2023-11-29T21:24:56.330+01:00,3208.6344005,-0.7672271728515625,0.310699462890625,-0.3807830810546875
2023-11-29T21:24:56.350+01:00,3208.6543385,-0.813751220703125,0.3211669921875,-0.37969970703125
2023-11-29T21:24:56.369+01:00,3208.6742755,-0.85906982421875,0.343902587890625,-0.3734588623046875
2023-11-29T21:24:56.389+01:00,3208.6942135,-0.9017333984375,0.3771820068359375,-0.3633270263671875
2023-11-29T21:24:56.409+01:00,3208.7141505,-0.9341583251953125,0.4056854248046875,-0.34490966796875
2023-11-29T21:24:56.429+01:00,3208.7340885,-0.9728851318359375,0.440582275390625,-0.34783935546875
2023-11-29T21:24:56.449+01:00,3208.7540255,-0.9868621826171875,0.4429779052734375,-0.340057373046875
2023-11-29T21:24:56.469+01:00,3208.7739635,-0.955078125,0.428436279296875,-0.33782958984375
2023-11-29T21:24:56.489+01:00,3208.7939005,-0.908294677734375,0.4056396484375,-0.3302154541015625
2023-11-29T21:24:56.509+01:00,3208.8138385,-0.8720550537109375,0.393829345703125,-0.32861328125
2023-11-29T21:24:56.529+01:00,3208.8337755,-0.8615264892578125,0.3575897216796875,-0.346527099609375
2023-11-29T21:24:56.549+01:00,3208.8537135,-0.847625732421875,0.31988525390625,-0.352142333984375
2023-11-29T21:24:56.569+01:00,3208.8736505,-0.829254150390625,0.2943878173828125,-0.352294921875
2023-11-29T21:24:56.589+01:00,3208.8935885,-0.809173583984375,0.2862091064453125,-0.35223388671875
2023-11-29T21:24:56.609+01:00,3208.9135255,-0.80084228515625,0.30096435546875,-0.354217529296875
2023-11-29T21:24:56.629+01:00,3208.9334635,-0.8029937744140625,0.3348236083984375,-0.355926513671875
2023-11-29T21:24:56.648+01:00,3208.9534005,-0.812255859375,0.33294677734375,-0.348724365234375
2023-11-29T21:24:56.668+01:00,3208.9733385,-0.823486328125,0.3291473388671875,-0.347412109375
2023-11-29T21:24:56.688+01:00,3208.9932765,-0.8454132080078125,0.32403564453125,-0.3535003662109375
2023-11-29T21:24:56.708+01:00,3209.0132135,-0.85980224609375,0.3180084228515625,-0.354095458984375
2023-11-29T21:24:56.728+01:00,3209.0331515,-0.8584442138671875,0.2992706298828125,-0.3419342041015625
2023-11-29T21:24:56.748+01:00,3209.0530885,-0.8656768798828125,0.2937774658203125,-0.33404541015625
2023-11-29T21:24:56.768+01:00,3209.0730265,-0.88671875,0.3017425537109375,-0.3314056396484375
2023-11-29T21:24:56.788+01:00,3209.0929635,-0.918212890625,0.3050384521484375,-0.330902099609375
2023-11-29T21:24:56.808+01:00,3209.1129015,-0.937896728515625,0.2975311279296875,-0.324127197265625
2023-11-29T21:24:56.828+01:00,3209.1328385,-0.912841796875,0.2780303955078125,-0.3031158447265625
2023-11-29T21:24:56.848+01:00,3209.1527765,-0.8315887451171875,0.2567291259765625,-0.26702880859375
2023-11-29T21:24:56.868+01:00,3209.1727135,-0.78070068359375,0.25738525390625,-0.2454376220703125
2023-11-29T21:24:56.888+01:00,3209.192651791667,-0.77825927734375,0.2813720703125,-0.2448577880859375
2023-11-29T21:24:56.908+01:00,3209.212588791667,-0.81005859375,0.28509521484375,-0.242401123046875
2023-11-29T21:24:56.928+01:00,3209.232526791667,-0.85211181640625,0.277679443359375,-0.232452392578125
2023-11-29T21:24:56.948+01:00,3209.252463791667,-0.8981170654296875,0.2693939208984375,-0.2260894775390625
2023-11-29T21:24:56.968+01:00,3209.272401791667,-0.9304962158203125,0.2718963623046875,-0.238006591796875
2023-11-29T21:24:56.987+01:00,3209.292338791667,-0.9792022705078125,0.2787628173828125,-0.248077392578125
2023-11-29T21:24:57.007+01:00,3209.312276791667,-1.030975341796875,0.305908203125,-0.2779083251953125
2023-11-29T21:24:57.027+01:00,3209.332213791667,-1.064041137695312,0.317169189453125,-0.296661376953125
2023-11-29T21:24:57.047+01:00,3209.352151791667,-1.053314208984375,0.3302154541015625,-0.315704345703125
2023-11-29T21:24:57.067+01:00,3209.372088791667,-0.986968994140625,0.33538818359375,-0.308441162109375
2023-11-29T21:24:57.087+01:00,3209.392026791667,-0.91839599609375,0.336944580078125,-0.317535400390625
2023-11-29T21:24:57.107+01:00,3209.411963791667,-0.8736572265625,0.36663818359375,-0.3310546875
2023-11-29T21:24:57.127+01:00,3209.431901791667,-0.8534088134765625,0.36065673828125,-0.3488922119140625
2023-11-29T21:24:57.147+01:00,3209.451838791667,-0.865447998046875,0.349151611328125,-0.3616485595703125
2023-11-29T21:24:57.167+01:00,3209.471776791667,-0.879180908203125,0.3089599609375,-0.373260498046875
2023-11-29T21:24:57.187+01:00,3209.491714791667,-0.8881378173828125,0.291015625,-0.381378173828125
2023-11-29T21:24:57.207+01:00,3209.511651791667,-0.9196929931640625,0.30352783203125,-0.4064483642578125
2023-11-29T21:24:57.227+01:00,3209.531589791667,-0.947601318359375,0.305694580078125,-0.4220733642578125
2023-11-29T21:24:57.247+01:00,3209.551526791667,-0.9591217041015625,0.307952880859375,-0.4273681640625
2023-11-29T21:24:57.267+01:00,3209.571464791667,-0.9629364013671875,0.3544921875,-0.4267120361328125
2023-11-29T21:24:57.286+01:00,3209.591401791667,-0.96820068359375,0.379150390625,-0.42279052734375
2023-11-29T21:24:57.306+01:00,3209.611339791667,-0.9638671875,0.3925933837890625,-0.4097900390625
2023-11-29T21:24:57.326+01:00,3209.631276791667,-0.945953369140625,0.39324951171875,-0.3935394287109375
2023-11-29T21:24:57.346+01:00,3209.651214791667,-0.9286346435546875,0.40887451171875,-0.38787841796875
2023-11-29T21:24:57.366+01:00,3209.671151791667,-0.9261932373046875,0.3957061767578125,-0.38006591796875
2023-11-29T21:24:57.386+01:00,3209.691089791667,-0.97900390625,0.37957763671875,-0.3846282958984375
2023-11-29T21:24:57.406+01:00,3209.711026791667,-1.020751953125,0.3794403076171875,-0.37432861328125
2023-11-29T21:24:57.426+01:00,3209.730964791667,-1.02215576171875,0.3600006103515625,-0.3563690185546875
2023-11-29T21:24:57.446+01:00,3209.750901791667,-1.008514404296875,0.3520355224609375,-0.3441314697265625
2023-11-29T21:24:57.466+01:00,3209.770839791667,-0.9763641357421875,0.3561553955078125,-0.321014404296875
2023-11-29T21:24:57.486+01:00,3209.790776791667,-0.94036865234375,0.32598876953125,-0.3102569580078125
2023-11-29T21:24:57.506+01:00,3209.810714791667,-0.9230499267578125,0.329498291015625,-0.297149658203125
2023-11-29T21:24:57.526+01:00,3209.830651791667,-0.92987060546875,0.332763671875,-0.291961669921875
2023-11-29T21:24:57.546+01:00,3209.850589791667,-0.938140869140625,0.3242340087890625,-0.2733306884765625
2023-11-29T21:24:57.566+01:00,3209.870526791667,-0.93743896484375,0.2981414794921875,-0.250244140625
2023-11-29T21:24:57.586+01:00,3209.890464791667,-0.9425811767578125,0.29669189453125,-0.231201171875
2023-11-29T21:24:57.606+01:00,3209.910401791667,-0.9573822021484375,0.295928955078125,-0.2047882080078125
2023-11-29T21:24:57.625+01:00,3209.930339791667,-0.9647674560546875,0.3108978271484375,-0.186431884765625
2023-11-29T21:24:57.645+01:00,3209.950276791667,-0.9784393310546875,0.3214874267578125,-0.190826416015625
2023-11-29T21:24:57.665+01:00,3209.970214791667,-0.9819183349609375,0.3233489990234375,-0.188934326171875
2023-11-29T21:24:57.685+01:00,3209.990151791667,-0.9804229736328125,0.3121795654296875,-0.1859588623046875
2023-11-29T21:24:57.705+01:00,3210.010089791667,-0.9547882080078125,0.307281494140625,-0.188262939453125
2023-11-29T21:24:57.725+01:00,3210.030027791667,-0.923797607421875,0.2960662841796875,-0.1902618408203125
2023-11-29T21:24:57.745+01:00,3210.049964791667,-0.8988189697265625,0.289306640625,-0.2094879150390625
2023-11-29T21:24:57.765+01:00,3210.069902791667,-0.87420654296875,0.2777862548828125,-0.2285614013671875
2023-11-29T21:24:57.785+01:00,3210.089839791667,-0.873321533203125,0.219451904296875,-0.28594970703125
2023-11-29T21:24:57.805+01:00,3210.109777791667,-0.896575927734375,0.2093505859375,-0.2845001220703125
2023-11-29T21:24:57.825+01:00,3210.129714791667,-0.9274139404296875,0.175872802734375,-0.29425048828125
2023-11-29T21:24:57.845+01:00,3210.149652791667,-0.9094085693359375,0.190093994140625,-0.3125152587890625
2023-11-29T21:24:57.865+01:00,3210.169589791667,-0.9121856689453125,0.236358642578125,-0.3545379638671875
2023-11-29T21:24:57.885+01:00,3210.189528,-0.927093505859375,0.28619384765625,-0.431610107421875
2023-11-29T21:24:57.905+01:00,3210.209465,-0.932220458984375,0.297119140625,-0.4987030029296875
2023-11-29T21:24:57.925+01:00,3210.229403,-0.933013916015625,0.331085205078125,-0.5379486083984375
2023-11-29T21:24:57.944+01:00,3210.24934,-0.905426025390625,0.429931640625,-0.5762939453125
2023-11-29T21:24:57.964+01:00,3210.269278,-0.8892059326171875,0.492462158203125,-0.66815185546875
2023-11-29T21:24:57.984+01:00,3210.289215,-0.85052490234375,0.413543701171875,-0.7740478515625
2023-11-29T21:24:58.004+01:00,3210.309153,-0.80218505859375,0.317840576171875,-0.7513275146484375
2023-11-29T21:24:58.024+01:00,3210.32909,-0.6911773681640625,0.23944091796875,-0.689117431640625
2023-11-29T21:24:58.044+01:00,3210.349028,-0.6201934814453125,0.3401031494140625,-0.63323974609375
2023-11-29T21:24:58.064+01:00,3210.368965,-0.6307373046875,0.4136199951171875,-0.627655029296875
2023-11-29T21:24:58.084+01:00,3210.388903,-0.6024932861328125,0.4027252197265625,-0.580322265625
2023-11-29T21:24:58.104+01:00,3210.40884,-0.6448516845703125,0.4424591064453125,-0.543670654296875
2023-11-29T21:24:58.124+01:00,3210.428778,-0.6413726806640625,0.4962310791015625,-0.555572509765625
2023-11-29T21:24:58.144+01:00,3210.448715,-0.633758544921875,0.461395263671875,-0.5797271728515625
2023-11-29T21:24:58.164+01:00,3210.468653,-0.6419219970703125,0.2393035888671875,-0.4387359619140625
2023-11-29T21:24:58.184+01:00,3210.48859,-0.6012420654296875,0.3857421875,-0.296630859375
2023-11-29T21:24:58.204+01:00,3210.508528,-0.634033203125,0.4787750244140625,-0.3545074462890625
2023-11-29T21:24:58.224+01:00,3210.528465,-0.65899658203125,0.474029541015625,-0.3565673828125
2023-11-29T21:24:58.244+01:00,3210.548403,-0.665771484375,0.4730072021484375,-0.3560028076171875
2023-11-29T21:24:58.263+01:00,3210.568341,-0.6661224365234375,0.4892425537109375,-0.3628997802734375
2023-11-29T21:24:58.283+01:00,3210.588278,-0.6428070068359375,0.3974151611328125,-0.3330841064453125
2023-11-29T21:24:58.303+01:00,3210.608216,-0.6311492919921875,0.4178314208984375,-0.33123779296875
2023-11-29T21:24:58.323+01:00,3210.628153,-0.647491455078125,0.45574951171875,-0.3037872314453125
2023-11-29T21:24:58.343+01:00,3210.648091,-0.666107177734375,0.4297332763671875,-0.32073974609375
2023-11-29T21:24:58.363+01:00,3210.668028,-0.7058868408203125,0.427337646484375,-0.3958892822265625
2023-11-29T21:24:58.383+01:00,3210.687966,-0.747222900390625,0.432769775390625,-0.445770263671875
2023-11-29T21:24:58.403+01:00,3210.707903,-0.76116943359375,0.4029083251953125,-0.4690399169921875
2023-11-29T21:24:58.423+01:00,3210.727841,-0.803558349609375,0.408447265625,-0.4701995849609375
2023-11-29T21:24:58.443+01:00,3210.747778,-0.827606201171875,0.406494140625,-0.488861083984375
2023-11-29T21:24:58.463+01:00,3210.767716,-0.85369873046875,0.371185302734375,-0.511383056640625
2023-11-29T21:24:58.483+01:00,3210.787653,-0.89337158203125,0.35882568359375,-0.5200653076171875
2023-11-29T21:24:58.503+01:00,3210.807591,-0.92791748046875,0.341796875,-0.5937957763671875
2023-11-29T21:24:58.523+01:00,3210.827528,-0.957733154296875,0.3855133056640625,-0.7030029296875
2023-11-29T21:24:58.543+01:00,3210.847466,-0.9885101318359375,0.4005279541015625,-0.7420806884765625
2023-11-29T21:24:58.562+01:00,3210.867403,-0.98565673828125,0.3756866455078125,-0.7059783935546875
2023-11-29T21:24:58.582+01:00,3210.887341,-0.9825897216796875,0.37896728515625,-0.6478729248046875
2023-11-29T21:24:58.602+01:00,3210.907278,-0.9339447021484375,0.37225341796875,-0.5877227783203125
2023-11-29T21:24:58.622+01:00,3210.927216,-0.90869140625,0.3563385009765625,-0.5169219970703125
2023-11-29T21:24:58.642+01:00,3210.947153,-0.8682708740234375,0.3774261474609375,-0.4483184814453125
2023-11-29T21:24:58.662+01:00,3210.967091,-0.8479461669921875,0.3956146240234375,-0.3952484130859375
2023-11-29T21:24:58.682+01:00,3210.987028,-0.8642120361328125,0.416351318359375,-0.36773681640625
2023-11-29T21:24:58.702+01:00,3211.006966,-0.879364013671875,0.4112396240234375,-0.332733154296875
2023-11-29T21:24:58.722+01:00,3211.026903,-0.8587646484375,0.3433074951171875,-0.30535888671875
2023-11-29T21:24:58.742+01:00,3211.046841,-0.849822998046875,0.2964019775390625,-0.26580810546875
2023-11-29T21:24:58.762+01:00,3211.066779,-0.84344482421875,0.3223114013671875,-0.2417144775390625
2023-11-29T21:24:58.782+01:00,3211.086716,-0.8877716064453125,0.389923095703125,-0.2604827880859375
2023-11-29T21:24:58.802+01:00,3211.106654,-0.9286651611328125,0.36865234375,-0.2391510009765625
2023-11-29T21:24:58.822+01:00,3211.126591,-0.9579620361328125,0.3587799072265625,-0.215545654296875
2023-11-29T21:24:58.842+01:00,3211.146529,-0.9666290283203125,0.37762451171875,-0.18133544921875
2023-11-29T21:24:58.862+01:00,3211.166466,-0.942535400390625,0.4063262939453125,-0.1769561767578125
2023-11-29T21:24:58.883+01:00,3211.186405,-0.9155731201171875,0.43768310546875,-0.170684814453125
2023-11-29T21:24:58.901+01:00,3211.206342,-0.8927459716796875,0.438568115234375,-0.1684112548828125
2023-11-29T21:24:58.921+01:00,3211.22628,-0.886474609375,0.45220947265625,-0.1665496826171875
2023-11-29T21:24:58.941+01:00,3211.246217,-0.8854827880859375,0.41668701171875,-0.1536407470703125
2023-11-29T21:24:58.961+01:00,3211.266155,-0.8572235107421875,0.3909454345703125,-0.135589599609375
2023-11-29T21:24:58.981+01:00,3211.286092,-0.8137664794921875,0.3809051513671875,-0.1278839111328125
2023-11-29T21:24:59.001+01:00,3211.30603,-0.776763916015625,0.3764495849609375,-0.1360015869140625
2023-11-29T21:24:59.021+01:00,3211.325967,-0.76318359375,0.398223876953125,-0.14794921875
2023-11-29T21:24:59.041+01:00,3211.345905,-0.7641448974609375,0.429656982421875,-0.1681976318359375
2023-11-29T21:24:59.061+01:00,3211.365842,-0.77923583984375,0.4415283203125,-0.181854248046875
2023-11-29T21:24:59.081+01:00,3211.38578,-0.821319580078125,0.4522247314453125,-0.1944580078125
2023-11-29T21:24:59.101+01:00,3211.405717,-0.8751068115234375,0.47723388671875,-0.20703125
2023-11-29T21:24:59.121+01:00,3211.425655,-0.9427947998046875,0.4756622314453125,-0.2125091552734375
2023-11-29T21:24:59.141+01:00,3211.445592,-0.9744110107421875,0.481353759765625,-0.19757080078125
2023-11-29T21:24:59.161+01:00,3211.46553,-0.982513427734375,0.48516845703125,-0.189910888671875
2023-11-29T21:24:59.181+01:00,3211.485467,-0.985504150390625,0.508331298828125,-0.2021942138671875
2023-11-29T21:24:59.200+01:00,3211.505405,-0.9818572998046875,0.5212554931640625,-0.207611083984375
2023-11-29T21:24:59.221+01:00,3211.525342,-0.9666290283203125,0.514404296875,-0.20513916015625
2023-11-29T21:24:59.240+01:00,3211.54528,-0.9796142578125,0.50897216796875,-0.2096710205078125
2023-11-29T21:24:59.260+01:00,3211.565217,-1.004226684570312,0.51934814453125,-0.227996826171875
2023-11-29T21:24:59.280+01:00,3211.585155,-1.005584716796875,0.49078369140625,-0.2468109130859375
2023-11-29T21:24:59.300+01:00,3211.605093,-1.006683349609375,0.439849853515625,-0.263641357421875
2023-11-29T21:24:59.320+01:00,3211.62503,-1.011383056640625,0.4366912841796875,-0.28411865234375
2023-11-29T21:24:59.340+01:00,3211.644968,-0.99127197265625,0.400634765625,-0.30853271484375
2023-11-29T21:24:59.360+01:00,3211.664905,-0.963165283203125,0.3520050048828125,-0.3495025634765625
2023-11-29T21:24:59.380+01:00,3211.684843,-0.9552764892578125,0.3311004638671875,-0.3765106201171875
2023-11-29T21:24:59.400+01:00,3211.70478,-0.9691009521484375,0.33770751953125,-0.4095611572265625
2023-11-29T21:24:59.420+01:00,3211.724718,-0.9369049072265625,0.343048095703125,-0.48876953125
2023-11-29T21:24:59.440+01:00,3211.744655,-0.9167633056640625,0.3099365234375,-0.5780029296875
2023-11-29T21:24:59.460+01:00,3211.764593,-0.867767333984375,0.350921630859375,-0.6181793212890625
2023-11-29T21:24:59.480+01:00,3211.78453,-0.8400115966796875,0.3694915771484375,-0.6018218994140625
2023-11-29T21:24:59.500+01:00,3211.804468,-0.849761962890625,0.3826141357421875,-0.557769775390625
2023-11-29T21:24:59.520+01:00,3211.824405,-0.86505126953125,0.3614044189453125,-0.5074310302734375
2023-11-29T21:24:59.539+01:00,3211.844343,-0.91253662109375,0.322509765625,-0.46533203125
2023-11-29T21:24:59.559+01:00,3211.86428,-0.9339752197265625,0.3273773193359375,-0.4125518798828125
2023-11-29T21:24:59.579+01:00,3211.884218,-0.9368743896484375,0.3573150634765625,-0.3920440673828125
2023-11-29T21:24:59.599+01:00,3211.904155,-1.005706787109375,0.3796844482421875,-0.395843505859375
2023-11-29T21:24:59.619+01:00,3211.924093,-1.02838134765625,0.382049560546875,-0.3610992431640625
2023-11-29T21:24:59.639+01:00,3211.94403,-1.002456665039062,0.38677978515625,-0.3179779052734375
2023-11-29T21:24:59.659+01:00,3211.963968,-0.9974365234375,0.3329925537109375,-0.280364990234375
2023-11-29T21:24:59.679+01:00,3211.983905,-0.9588470458984375,0.3157196044921875,-0.2623443603515625
2023-11-29T21:24:59.699+01:00,3212.003843,-0.9344940185546875,0.303314208984375,-0.240936279296875
2023-11-29T21:24:59.719+01:00,3212.02378,-0.9294281005859375,0.2780609130859375,-0.2369384765625
2023-11-29T21:24:59.739+01:00,3212.043718,-0.923828125,0.262054443359375,-0.229736328125
2023-11-29T21:24:59.759+01:00,3212.063655,-0.925537109375,0.253204345703125,-0.2166290283203125
2023-11-29T21:24:59.779+01:00,3212.083593,-0.9170379638671875,0.2281341552734375,-0.197021484375
2023-11-29T21:24:59.799+01:00,3212.10353,-0.8868408203125,0.2168121337890625,-0.1792755126953125
2023-11-29T21:24:59.819+01:00,3212.123468,-0.84429931640625,0.1938629150390625,-0.1710357666015625
2023-11-29T21:24:59.839+01:00,3212.143406,-0.83245849609375,0.202239990234375,-0.1725616455078125
2023-11-29T21:24:59.858+01:00,3212.163343,-0.8527984619140625,0.18475341796875,-0.182830810546875
2023-11-29T21:24:59.878+01:00,3212.183279375,-0.88714599609375,0.176605224609375,-0.188018798828125
2023-11-29T21:24:59.898+01:00,3212.203216375,-0.9289398193359375,0.1749267578125,-0.195465087890625
2023-11-29T21:24:59.918+01:00,3212.223154375,-0.9632415771484375,0.1849212646484375,-0.200408935546875
2023-11-29T21:24:59.938+01:00,3212.243091375,-0.9664459228515625,0.180450439453125,-0.201171875
2023-11-29T21:24:59.958+01:00,3212.263029375,-0.955413818359375,0.192108154296875,-0.20831298828125
2023-11-29T21:24:59.978+01:00,3212.282966375,-0.9603424072265625,0.1992645263671875,-0.2313995361328125
2023-11-29T21:24:59.998+01:00,3212.302904375,-0.9458160400390625,0.2039031982421875,-0.2282867431640625
2023-11-29T21:25:00.018+01:00,3212.322841375,-0.9014739990234375,0.1923980712890625,-0.22796630859375
2023-11-29T21:25:00.038+01:00,3212.342779375,-0.8787841796875,0.2055816650390625,-0.23516845703125
2023-11-29T21:25:00.058+01:00,3212.362716375,-0.8668670654296875,0.2283477783203125,-0.2467803955078125
2023-11-29T21:25:00.078+01:00,3212.382654375,-0.8423919677734375,0.2415618896484375,-0.2536163330078125
2023-11-29T21:25:00.098+01:00,3212.402591375,-0.819366455078125,0.2433013916015625,-0.2589263916015625
2023-11-29T21:25:00.118+01:00,3212.422529375,-0.802886962890625,0.2544403076171875,-0.2682037353515625
2023-11-29T21:25:00.138+01:00,3212.442466375,-0.8001708984375,0.2820892333984375,-0.29046630859375
2023-11-29T21:25:00.157+01:00,3212.462404375,-0.840057373046875,0.2816619873046875,-0.313568115234375
2023-11-29T21:25:00.178+01:00,3212.482341375,-0.8878326416015625,0.288299560546875,-0.345306396484375
2023-11-29T21:25:00.197+01:00,3212.502279375,-0.9117584228515625,0.2948150634765625,-0.38043212890625
2023-11-29T21:25:00.217+01:00,3212.522216375,-0.918243408203125,0.2730560302734375,-0.39349365234375
2023-11-29T21:25:00.237+01:00,3212.542154375,-0.92327880859375,0.27252197265625,-0.4029541015625
2023-11-29T21:25:00.257+01:00,3212.562091375,-0.920318603515625,0.296630859375,-0.410186767578125
2023-11-29T21:25:00.277+01:00,3212.582029375,-0.91400146484375,0.301239013671875,-0.4076995849609375
2023-11-29T21:25:00.297+01:00,3212.601967375,-0.9002532958984375,0.2988433837890625,-0.4040679931640625
2023-11-29T21:25:00.317+01:00,3212.621904375,-0.8785400390625,0.3018035888671875,-0.3875885009765625
2023-11-29T21:25:00.337+01:00,3212.641842375,-0.864288330078125,0.3005523681640625,-0.381103515625
2023-11-29T21:25:00.357+01:00,3212.661779375,-0.8734130859375,0.3095703125,-0.3757171630859375
2023-11-29T21:25:00.377+01:00,3212.681717375,-0.896026611328125,0.3322601318359375,-0.36822509765625
2023-11-29T21:25:00.397+01:00,3212.701654375,-0.8969268798828125,0.3254547119140625,-0.353912353515625
2023-11-29T21:25:00.417+01:00,3212.721592375,-0.911285400390625,0.315155029296875,-0.330596923828125
2023-11-29T21:25:00.437+01:00,3212.741529375,-0.9297332763671875,0.3106231689453125,-0.3128662109375
2023-11-29T21:25:00.457+01:00,3212.761467375,-0.9472503662109375,0.3231964111328125,-0.30218505859375
2023-11-29T21:25:00.476+01:00,3212.781404375,-0.9542236328125,0.318145751953125,-0.2875823974609375
2023-11-29T21:25:00.496+01:00,3212.801342375,-0.9529571533203125,0.3230438232421875,-0.292633056640625
2023-11-29T21:25:00.517+01:00,3212.821279375,-0.9666290283203125,0.330352783203125,-0.2982940673828125
2023-11-29T21:25:00.536+01:00,3212.841217375,-0.986297607421875,0.3394775390625,-0.2961883544921875
2023-11-29T21:25:00.556+01:00,3212.861154375,-1.000930786132812,0.3390350341796875,-0.298431396484375
2023-11-29T21:25:00.576+01:00,3212.881092375,-1.01043701171875,0.3459320068359375,-0.3047027587890625
2023-11-29T21:25:00.596+01:00,3212.901029375,-1.022994995117188,0.3616943359375,-0.30718994140625
2023-11-29T21:25:00.616+01:00,3212.920967375,-1.033660888671875,0.3605194091796875,-0.29241943359375
2023-11-29T21:25:00.636+01:00,3212.940904375,-1.01800537109375,0.359832763671875,-0.2809295654296875
2023-11-29T21:25:00.656+01:00,3212.960842375,-0.99041748046875,0.3566131591796875,-0.2653656005859375
2023-11-29T21:25:00.676+01:00,3212.980779375,-0.95855712890625,0.344482421875,-0.2494964599609375
2023-11-29T21:25:00.696+01:00,3213.000717375,-0.9285736083984375,0.3491363525390625,-0.2460479736328125
2023-11-29T21:25:00.716+01:00,3213.020654375,-0.9007720947265625,0.33416748046875,-0.2349853515625
2023-11-29T21:25:00.736+01:00,3213.040592375,-0.90814208984375,0.3275146484375,-0.229705810546875
2023-11-29T21:25:00.756+01:00,3213.060530375,-0.92535400390625,0.34619140625,-0.2289276123046875
2023-11-29T21:25:00.776+01:00,3213.080467375,-0.9282073974609375,0.3529205322265625,-0.2279510498046875
2023-11-29T21:25:00.796+01:00,3213.100405375,-0.917694091796875,0.3630523681640625,-0.2294464111328125
2023-11-29T21:25:00.816+01:00,3213.120342375,-0.916717529296875,0.3800201416015625,-0.2293243408203125
2023-11-29T21:25:00.836+01:00,3213.140280375,-0.9233551025390625,0.3855438232421875,-0.2306060791015625
2023-11-29T21:25:00.857+01:00,3213.160217375,-0.9486083984375,0.4111785888671875,-0.2475738525390625
2023-11-29T21:25:00.880+01:00,3213.180155375,-0.9552764892578125,0.4128265380859375,-0.24981689453125
2023-11-29T21:25:00.895+01:00,3213.200092375,-0.932891845703125,0.4140777587890625,-0.249969482421875
2023-11-29T21:25:00.915+01:00,3213.220030375,-0.9322509765625,0.4117584228515625,-0.2483978271484375
2023-11-29T21:25:00.935+01:00,3213.239967375,-0.9472503662109375,0.40673828125,-0.2395782470703125
2023-11-29T21:25:00.955+01:00,3213.259905375,-0.9364776611328125,0.405609130859375,-0.2356414794921875
2023-11-29T21:25:00.975+01:00,3213.279842375,-0.918243408203125,0.3870697021484375,-0.2238311767578125
2023-11-29T21:25:00.995+01:00,3213.299780375,-0.9060821533203125,0.359466552734375,-0.2122802734375
2023-11-29T21:25:01.015+01:00,3213.319717375,-0.8946380615234375,0.34716796875,-0.2158355712890625
2023-11-29T21:25:01.036+01:00,3213.339655375,-0.8931884765625,0.3295440673828125,-0.234161376953125
2023-11-29T21:25:01.055+01:00,3213.359592375,-0.8907928466796875,0.3128662109375,-0.2437744140625
2023-11-29T21:25:01.075+01:00,3213.379530375,-0.89923095703125,0.306488037109375,-0.266448974609375
2023-11-29T21:25:01.095+01:00,3213.399467375,-0.90325927734375,0.300018310546875,-0.2630615234375
2023-11-29T21:25:01.115+01:00,3213.419405375,-0.890350341796875,0.3142547607421875,-0.278778076171875
2023-11-29T21:25:01.134+01:00,3213.439342375,-0.8827362060546875,0.3325347900390625,-0.2995147705078125
2023-11-29T21:25:01.154+01:00,3213.459280375,-0.8817596435546875,0.3346405029296875,-0.31243896484375
2023-11-29T21:25:01.174+01:00,3213.479217375,-0.88848876953125,0.3222198486328125,-0.3248443603515625
2023-11-29T21:25:01.194+01:00,3213.499155375,-0.896759033203125,0.3187713623046875,-0.3334503173828125
2023-11-29T21:25:01.214+01:00,3213.519093375,-0.922943115234375,0.3271942138671875,-0.34588623046875
2023-11-29T21:25:01.234+01:00,3213.539030375,-0.9242706298828125,0.32080078125,-0.353363037109375
2023-11-29T21:25:01.254+01:00,3213.558968375,-0.91387939453125,0.320953369140625,-0.3578033447265625
2023-11-29T21:25:01.274+01:00,3213.578905375,-0.9132232666015625,0.31365966796875,-0.3565216064453125
2023-11-29T21:25:01.294+01:00,3213.598843375,-0.91680908203125,0.303924560546875,-0.3552093505859375
2023-11-29T21:25:01.314+01:00,3213.618780375,-0.9090728759765625,0.3058319091796875,-0.3578643798828125
2023-11-29T21:25:01.334+01:00,3213.638718375,-0.9037322998046875,0.2899169921875,-0.3494110107421875
2023-11-29T21:25:01.354+01:00,3213.658655375,-0.8948974609375,0.291778564453125,-0.34844970703125
2023-11-29T21:25:01.374+01:00,3213.678593375,-0.880767822265625,0.2962493896484375,-0.349456787109375
2023-11-29T21:25:01.394+01:00,3213.698530375,-0.8872528076171875,0.2701263427734375,-0.326690673828125
2023-11-29T21:25:01.414+01:00,3213.718468375,-0.8935089111328125,0.274261474609375,-0.3262481689453125
2023-11-29T21:25:01.433+01:00,3213.738405375,-0.890289306640625,0.28717041015625,-0.320465087890625
2023-11-29T21:25:01.453+01:00,3213.758343375,-0.8863067626953125,0.2759246826171875,-0.305572509765625
2023-11-29T21:25:01.473+01:00,3213.778280375,-0.8725738525390625,0.2928619384765625,-0.3017425537109375
2023-11-29T21:25:01.493+01:00,3213.798218375,-0.8712921142578125,0.28265380859375,-0.298919677734375
2023-11-29T21:25:01.513+01:00,3213.818155375,-0.873443603515625,0.2856597900390625,-0.2969512939453125
2023-11-29T21:25:01.533+01:00,3213.838093375,-0.87872314453125,0.3042144775390625,-0.2952728271484375
2023-11-29T21:25:01.553+01:00,3213.858030375,-0.8785247802734375,0.30706787109375,-0.295440673828125
2023-11-29T21:25:01.573+01:00,3213.877968375,-0.8838958740234375,0.3147735595703125,-0.300262451171875
2023-11-29T21:25:01.593+01:00,3213.897906375,-0.8863983154296875,0.3074951171875,-0.2964935302734375
2023-11-29T21:25:01.613+01:00,3213.917843375,-0.8919830322265625,0.3083038330078125,-0.3021240234375
2023-11-29T21:25:01.633+01:00,3213.937781375,-0.8968353271484375,0.3050689697265625,-0.305999755859375
2023-11-29T21:25:01.653+01:00,3213.957718375,-0.894775390625,0.300445556640625,-0.3028411865234375
2023-11-29T21:25:01.675+01:00,3213.977656375,-0.9040985107421875,0.306182861328125,-0.30615234375
2023-11-29T21:25:01.693+01:00,3213.997593375,-0.9086761474609375,0.308135986328125,-0.310699462890625
2023-11-29T21:25:01.713+01:00,3214.017531375,-0.9037322998046875,0.301971435546875,-0.3213653564453125
2023-11-29T21:25:01.733+01:00,3214.037468375,-0.894439697265625,0.3026885986328125,-0.32415771484375
2023-11-29T21:25:01.752+01:00,3214.057406375,-0.8876800537109375,0.296875,-0.3314056396484375
2023-11-29T21:25:01.772+01:00,3214.077343375,-0.886932373046875,0.3057708740234375,-0.3423614501953125
2023-11-29T21:25:01.792+01:00,3214.097281375,-0.89068603515625,0.3038787841796875,-0.347564697265625
2023-11-29T21:25:01.812+01:00,3214.117218375,-0.90167236328125,0.3108978271484375,-0.350982666015625
2023-11-29T21:25:01.832+01:00,3214.137156375,-0.9033660888671875,0.309478759765625,-0.3524932861328125
2023-11-29T21:25:01.852+01:00,3214.157093375,-0.89471435546875,0.3115997314453125,-0.35382080078125
2023-11-29T21:25:01.872+01:00,3214.177031375,-0.90478515625,0.308563232421875,-0.352874755859375
2023-11-29T21:25:01.892+01:00,3214.196969125,-0.9200897216796875,0.316650390625,-0.3576812744140625
2023-11-29T21:25:01.912+01:00,3214.216907125,-0.9337615966796875,0.3062744140625,-0.3443450927734375
2023-11-29T21:25:01.932+01:00,3214.236844125,-0.93145751953125,0.30316162109375,-0.3385772705078125
2023-11-29T21:25:01.952+01:00,3214.256782125,-0.927703857421875,0.2887725830078125,-0.3403778076171875
2023-11-29T21:25:01.972+01:00,3214.276720125,-0.9250335693359375,0.28167724609375,-0.3397674560546875
2023-11-29T21:25:01.992+01:00,3214.296657125,-0.919525146484375,0.2620697021484375,-0.3337249755859375
2023-11-29T21:25:02.012+01:00,3214.316595125,-0.9239654541015625,0.24407958984375,-0.3251495361328125
2023-11-29T21:25:02.032+01:00,3214.336532125,-0.911163330078125,0.24957275390625,-0.32635498046875
2023-11-29T21:25:02.052+01:00,3214.356470125,-0.9047393798828125,0.251953125,-0.339019775390625
2023-11-29T21:25:02.072+01:00,3214.376407125,-0.9060516357421875,0.2420501708984375,-0.3461761474609375
2023-11-29T21:25:02.091+01:00,3214.396345125,-0.906646728515625,0.2428131103515625,-0.3435516357421875
2023-11-29T21:25:02.111+01:00,3214.416282125,-0.9095001220703125,0.248992919921875,-0.3378448486328125
2023-11-29T21:25:02.131+01:00,3214.436220125,-0.906524658203125,0.2685546875,-0.33697509765625
2023-11-29T21:25:02.151+01:00,3214.456157125,-0.9112548828125,0.287139892578125,-0.3397064208984375
2023-11-29T21:25:02.171+01:00,3214.476095125,-0.90875244140625,0.2812347412109375,-0.334686279296875
2023-11-29T21:25:02.191+01:00,3214.496032125,-0.8843994140625,0.289306640625,-0.3363494873046875
2023-11-29T21:25:02.211+01:00,3214.515970125,-0.869110107421875,0.3120574951171875,-0.352813720703125
2023-11-29T21:25:02.231+01:00,3214.535907125,-0.8505096435546875,0.32037353515625,-0.359832763671875
2023-11-29T21:25:02.251+01:00,3214.555845125,-0.821929931640625,0.3308563232421875,-0.36419677734375
2023-11-29T21:25:02.271+01:00,3214.575782125,-0.8027191162109375,0.3457489013671875,-0.375213623046875
2023-11-29T21:25:02.291+01:00,3214.595720125,-0.80010986328125,0.360870361328125,-0.39111328125
2023-11-29T21:25:02.311+01:00,3214.615657125,-0.797607421875,0.3653564453125,-0.405364990234375
2023-11-29T21:25:02.331+01:00,3214.635595125,-0.790802001953125,0.3643646240234375,-0.399444580078125
2023-11-29T21:25:02.351+01:00,3214.655533125,-0.79437255859375,0.3769683837890625,-0.4102783203125
2023-11-29T21:25:02.371+01:00,3214.675470125,-0.803070068359375,0.369903564453125,-0.405029296875
2023-11-29T21:25:02.390+01:00,3214.695408125,-0.8096160888671875,0.381622314453125,-0.40850830078125
2023-11-29T21:25:02.411+01:00,3214.715345125,-0.8182830810546875,0.39404296875,-0.4248046875
2023-11-29T21:25:02.430+01:00,3214.735283125,-0.82464599609375,0.38616943359375,-0.4181365966796875
2023-11-29T21:25:02.450+01:00,3214.755220125,-0.838653564453125,0.375213623046875,-0.40887451171875
2023-11-29T21:25:02.470+01:00,3214.775158125,-0.8478546142578125,0.380889892578125,-0.4224090576171875
2023-11-29T21:25:02.490+01:00,3214.795095125,-0.8523101806640625,0.3725738525390625,-0.420654296875
2023-11-29T21:25:02.510+01:00,3214.815033125,-0.865447998046875,0.3640289306640625,-0.4121551513671875
2023-11-29T21:25:02.530+01:00,3214.834970125,-0.87408447265625,0.351654052734375,-0.40704345703125
2023-11-29T21:25:02.550+01:00,3214.854908125,-0.8795928955078125,0.34356689453125,-0.3997802734375
2023-11-29T21:25:02.570+01:00,3214.874845125,-0.8850555419921875,0.34906005859375,-0.3919830322265625
2023-11-29T21:25:02.590+01:00,3214.894783125,-0.8878021240234375,0.3426361083984375,-0.3824005126953125
2023-11-29T21:25:02.610+01:00,3214.914720125,-0.888946533203125,0.330291748046875,-0.3683319091796875
2023-11-29T21:25:02.630+01:00,3214.934658125,-0.898468017578125,0.3279571533203125,-0.35772705078125
2023-11-29T21:25:02.650+01:00,3214.954595125,-0.904541015625,0.331512451171875,-0.3486175537109375
2023-11-29T21:25:02.670+01:00,3214.974533125,-0.9036407470703125,0.317108154296875,-0.34912109375
2023-11-29T21:25:02.690+01:00,3214.994470125,-0.9158477783203125,0.3162078857421875,-0.3512115478515625
2023-11-29T21:25:02.710+01:00,3215.014408125,-0.9261322021484375,0.2994842529296875,-0.3540802001953125
2023-11-29T21:25:02.729+01:00,3215.034346125,-0.92620849609375,0.2960357666015625,-0.3621673583984375
2023-11-29T21:25:02.749+01:00,3215.054283125,-0.9333343505859375,0.305511474609375,-0.404205322265625
2023-11-29T21:25:02.769+01:00,3215.074221125,-0.92877197265625,0.32183837890625,-0.4329681396484375
2023-11-29T21:25:02.789+01:00,3215.094158125,-0.9260101318359375,0.3366546630859375,-0.450714111328125
2023-11-29T21:25:02.811+01:00,3215.114096125,-0.923248291015625,0.339080810546875,-0.4937591552734375
2023-11-29T21:25:02.829+01:00,3215.134033125,-0.89111328125,0.3625030517578125,-0.489166259765625
2023-11-29T21:25:02.849+01:00,3215.153971125,-0.856201171875,0.3625030517578125,-0.47314453125
2023-11-29T21:25:02.869+01:00,3215.173908125,-0.842193603515625,0.4007110595703125,-0.472412109375
2023-11-29T21:25:02.889+01:00,3215.193846041667,-0.8305511474609375,0.4275360107421875,-0.4785614013671875
2023-11-29T21:25:02.909+01:00,3215.213783041667,-0.810821533203125,0.4274139404296875,-0.4926605224609375
2023-11-29T21:25:02.929+01:00,3215.233721041667,-0.80084228515625,0.4575042724609375,-0.50164794921875
2023-11-29T21:25:02.949+01:00,3215.253658041667,-0.7774200439453125,0.465179443359375,-0.50030517578125
2023-11-29T21:25:02.969+01:00,3215.273596041667,-0.7642822265625,0.507171630859375,-0.5358734130859375
2023-11-29T21:25:02.989+01:00,3215.293533041667,-0.75885009765625,0.5625457763671875,-0.5840606689453125
2023-11-29T21:25:03.009+01:00,3215.313471041667,-0.7529449462890625,0.58740234375,-0.6090087890625
2023-11-29T21:25:03.028+01:00,3215.333408041667,-0.749847412109375,0.5981903076171875,-0.6363983154296875
2023-11-29T21:25:03.048+01:00,3215.353346041667,-0.7677001953125,0.7480010986328125,-0.716705322265625
2023-11-29T21:25:03.068+01:00,3215.373284041667,-0.8085479736328125,0.7042999267578125,-0.8660125732421875
2023-11-29T21:25:03.088+01:00,3215.393221041667,-0.802703857421875,0.74200439453125,-0.9785003662109375
2023-11-29T21:25:03.108+01:00,3215.413159041667,-0.8270721435546875,0.805419921875,-1.060440063476562
2023-11-29T21:25:03.128+01:00,3215.433096041667,-0.811859130859375,0.760009765625,-1.158905029296875
2023-11-29T21:25:03.148+01:00,3215.453034041667,-0.8411712646484375,0.70831298828125,-1.297637939453125
2023-11-29T21:25:03.168+01:00,3215.472971041667,-0.837249755859375,0.67864990234375,-1.363388061523438
2023-11-29T21:25:03.188+01:00,3215.492909041667,-0.88885498046875,0.6530914306640625,-1.340957641601562
2023-11-29T21:25:03.208+01:00,3215.512846041667,-0.8287811279296875,0.5967254638671875,-1.286834716796875
2023-11-29T21:25:03.228+01:00,3215.532784041667,-0.68304443359375,0.733795166015625,-1.275970458984375
2023-11-29T21:25:03.248+01:00,3215.552721041667,-0.601165771484375,0.7426300048828125,-1.2335205078125
2023-11-29T21:25:03.268+01:00,3215.572659041667,-0.553497314453125,0.7781829833984375,-1.177093505859375
2023-11-29T21:25:03.288+01:00,3215.592596041667,-0.4718017578125,0.8029327392578125,-1.105270385742188
2023-11-29T21:25:03.308+01:00,3215.612534041667,-0.3233489990234375,0.9003753662109375,-1.068161010742188
2023-11-29T21:25:03.328+01:00,3215.632471041667,-0.2352142333984375,0.9279937744140625,-0.9514923095703125
2023-11-29T21:25:03.348+01:00,3215.652409041667,-0.198455810546875,0.86260986328125,-0.8704376220703125
2023-11-29T21:25:03.367+01:00,3215.672346041667,-0.102447509765625,0.876495361328125,-0.78216552734375
2023-11-29T21:25:03.387+01:00,3215.692284041667,-0.0001220703125,0.7621002197265625,-0.7491455078125
2023-11-29T21:25:03.407+01:00,3215.712222041667,0.069671630859375,0.7921905517578125,-0.6918487548828125
2023-11-29T21:25:03.427+01:00,3215.732159041667,0.116790771484375,0.7607879638671875,-0.59063720703125
2023-11-29T21:25:03.447+01:00,3215.752097041667,0.2022857666015625,0.657958984375,-0.4977874755859375
2023-11-29T21:25:03.467+01:00,3215.772034041667,0.2848052978515625,0.5504302978515625,-0.47003173828125
2023-11-29T21:25:03.487+01:00,3215.791972041667,0.385833740234375,0.441497802734375,-0.397491455078125
2023-11-29T21:25:03.507+01:00,3215.811909041667,0.4831695556640625,0.3260498046875,-0.2601318359375
2023-11-29T21:25:03.527+01:00,3215.831847041667,0.5562591552734375,0.2029266357421875,-0.175384521484375
2023-11-29T21:25:03.547+01:00,3215.851784041667,0.664031982421875,0.170074462890625,-0.119537353515625
2023-11-29T21:25:03.567+01:00,3215.871722041667,0.8155059814453125,0.1184844970703125,-0.051300048828125
2023-11-29T21:25:03.587+01:00,3215.891659041667,0.9155120849609375,0.048675537109375,-0.0437469482421875
2023-11-29T21:25:03.607+01:00,3215.911597041667,0.9052581787109375,-0.0424652099609375,-0.068572998046875
2023-11-29T21:25:03.627+01:00,3215.931534041667,0.8433685302734375,-0.1531524658203125,-0.0302886962890625
2023-11-29T21:25:03.647+01:00,3215.951472041667,0.8370208740234375,-0.37255859375,0.0288238525390625
2023-11-29T21:25:03.666+01:00,3215.971409041667,0.8941650390625,-0.269622802734375,0.0391387939453125
2023-11-29T21:25:03.686+01:00,3215.991347041667,0.8509674072265625,-0.1710662841796875,-0.06005859375
2023-11-29T21:25:03.707+01:00,3216.011285041667,0.83380126953125,-0.311981201171875,0.098968505859375
2023-11-29T21:25:03.726+01:00,3216.031222041667,0.7910919189453125,-0.3146820068359375,0.0969696044921875
2023-11-29T21:25:03.746+01:00,3216.051160041667,0.7714080810546875,-0.1856231689453125,-0.1347808837890625
2023-11-29T21:25:03.766+01:00,3216.071097041667,0.781768798828125,-0.2693634033203125,-0.1449737548828125
2023-11-29T21:25:03.786+01:00,3216.091035041667,0.7443389892578125,-0.20501708984375,-0.1752166748046875
2023-11-29T21:25:03.806+01:00,3216.110972041667,0.809173583984375,-0.2692413330078125,-0.2182464599609375
2023-11-29T21:25:03.826+01:00,3216.130910041667,0.803192138671875,-0.3697509765625,-0.275054931640625
2023-11-29T21:25:03.846+01:00,3216.150847041667,0.70721435546875,-0.3964080810546875,-0.3506317138671875
2023-11-29T21:25:03.866+01:00,3216.170785041667,0.7191619873046875,-0.46685791015625,-0.307952880859375
2023-11-29T21:25:03.886+01:00,3216.1907215,0.7057647705078125,-0.5371246337890625,-0.147552490234375
2023-11-29T21:25:03.906+01:00,3216.2106595,0.542755126953125,-0.544219970703125,-0.052093505859375
2023-11-29T21:25:03.926+01:00,3216.2305965,0.5248260498046875,-0.6374359130859375,0.0393218994140625
2023-11-29T21:25:03.946+01:00,3216.2505345,0.43853759765625,-0.724700927734375,0.2931976318359375
2023-11-29T21:25:03.965+01:00,3216.2704715,0.4426422119140625,-0.8639373779296875,0.59356689453125
2023-11-29T21:25:03.985+01:00,3216.2904095,0.4555206298828125,-1.0018310546875,0.822662353515625
2023-11-29T21:25:04.005+01:00,3216.3103465,0.4911041259765625,-1.109771728515625,1.11065673828125
2023-11-29T21:25:04.025+01:00,3216.3302845,0.5020294189453125,-1.138397216796875,1.299697875976562
2023-11-29T21:25:04.045+01:00,3216.3502215,0.5085601806640625,-1.212875366210938,1.370223999023438
2023-11-29T21:25:04.065+01:00,3216.3701595,0.5318145751953125,-1.15093994140625,1.4617919921875
2023-11-29T21:25:04.085+01:00,3216.3900975,0.4150238037109375,-1.018539428710938,1.428268432617188
2023-11-29T21:25:04.105+01:00,3216.4100345,0.329193115234375,-1.026351928710938,1.196258544921875
2023-11-29T21:25:04.125+01:00,3216.4299725,-0.090118408203125,-0.60675048828125,0.9863739013671875
2023-11-29T21:25:04.145+01:00,3216.4499095,-0.5194091796875,-0.2719879150390625,0.5038604736328125
2023-11-29T21:25:04.165+01:00,3216.4698475,-0.6072235107421875,-0.0604400634765625,0.0478668212890625
2023-11-29T21:25:04.185+01:00,3216.4897845,-0.660736083984375,0.4451446533203125,-0.140045166015625
2023-11-29T21:25:04.205+01:00,3216.5097225,-0.4774322509765625,0.164398193359375,-0.2212982177734375
2023-11-29T21:25:04.225+01:00,3216.5296595,-0.673614501953125,0.1637725830078125,-0.5046234130859375
2023-11-29T21:25:04.245+01:00,3216.5495975,-0.1614227294921875,1.166534423828125,-0.8945770263671875
2023-11-29T21:25:04.265+01:00,3216.5695345,-0.0348052978515625,1.21990966796875,-1.083969116210938
2023-11-29T21:25:04.284+01:00,3216.5894725,-0.3046722412109375,0.5034027099609375,-1.161544799804688
2023-11-29T21:25:04.305+01:00,3216.6094095,0.8624420166015625,-0.6595916748046875,0.474151611328125
2023-11-29T21:25:04.324+01:00,3216.6293475,0.4102630615234375,0.7857666015625,-0.443939208984375
2023-11-29T21:25:04.344+01:00,3216.6492845,-0.2967987060546875,0.156341552734375,-0.6430206298828125
2023-11-29T21:25:04.364+01:00,3216.6692225,-0.4724273681640625,0.1500396728515625,-0.7430419921875
2023-11-29T21:25:04.384+01:00,3216.6891605,-0.387115478515625,0.32415771484375,-0.5244598388671875
2023-11-29T21:25:04.404+01:00,3216.7090975,-0.3203277587890625,0.477813720703125,-0.173004150390625
2023-11-29T21:25:04.424+01:00,3216.7290355,-0.37554931640625,0.25762939453125,-0.0639190673828125
2023-11-29T21:25:04.444+01:00,3216.7489725,-0.3363494873046875,0.341400146484375,-0.192047119140625
2023-11-29T21:25:04.464+01:00,3216.7689105,-0.440765380859375,0.3400115966796875,-0.1355133056640625
2023-11-29T21:25:04.484+01:00,3216.7888475,-0.568939208984375,0.1797637939453125,-0.0343017578125
2023-11-29T21:25:04.504+01:00,3216.8087855,-0.7000732421875,0.2082977294921875,-0.130859375
2023-11-29T21:25:04.524+01:00,3216.8287225,-0.9742431640625,0.5041351318359375,-0.34967041015625
2023-11-29T21:25:04.544+01:00,3216.8486605,-1.361053466796875,0.59271240234375,-0.3269195556640625
2023-11-29T21:25:04.564+01:00,3216.8685975,-2.03216552734375,0.6244964599609375,-0.4067840576171875
2023-11-29T21:25:04.583+01:00,3216.8885355,-2.85650634765625,1.276947021484375,-0.848480224609375
2023-11-29T21:25:04.604+01:00,3216.9084725,-3.405532836914062,1.8763427734375,-0.9716949462890625
2023-11-29T21:25:04.624+01:00,3216.9284105,-3.708755493164062,2.488143920898438,-0.862335205078125
2023-11-29T21:25:04.644+01:00,3216.9483475,-3.566192626953125,2.46990966796875,-1.072769165039062
2023-11-29T21:25:04.699+01:00,3216.9682855,-3.28466796875,2.120681762695312,-1.273635864257812
2023-11-29T21:25:04.700+01:00,3216.9882225,-2.923782348632812,1.718551635742188,-0.8149261474609375
2023-11-29T21:25:04.704+01:00,3217.0081605,-2.45611572265625,1.443252563476562,-0.962890625
2023-11-29T21:25:04.723+01:00,3217.0280975,-2.482315063476562,1.64385986328125,-1.777572631835938
2023-11-29T21:25:04.743+01:00,3217.0480355,-1.660980224609375,1.29742431640625,-1.219940185546875
2023-11-29T21:25:04.763+01:00,3217.0679735,-1.645492553710938,1.221847534179688,-0.4449310302734375
2023-11-29T21:25:04.783+01:00,3217.0879105,-0.954071044921875,1.485610961914062,-0.6497344970703125
2023-11-29T21:25:04.803+01:00,3217.1078485,-1.0931396484375,0.801025390625,-0.4289703369140625
2023-11-29T21:25:04.823+01:00,3217.1277855,-1.056991577148438,0.501953125,-0.1863250732421875
2023-11-29T21:25:04.843+01:00,3217.1477235,-0.8935546875,0.7580718994140625,-0.2932891845703125
2023-11-29T21:25:04.863+01:00,3217.1676605,-0.834564208984375,1.001541137695312,-0.313568115234375
2023-11-29T21:25:04.883+01:00,3217.187599041667,-0.8094635009765625,0.8503875732421875,-0.1626739501953125
2023-11-29T21:25:04.903+01:00,3217.207536041667,-0.7448883056640625,0.7349853515625,-0.0767364501953125
2023-11-29T21:25:04.923+01:00,3217.227474041667,-0.70489501953125,0.611297607421875,-0.0574188232421875
2023-11-29T21:25:04.942+01:00,3217.247411041667,-0.7082977294921875,0.5514068603515625,-0.03131103515625
2023-11-29T21:25:04.962+01:00,3217.267349041667,-0.726226806640625,0.569549560546875,0.00054931640625
2023-11-29T21:25:04.982+01:00,3217.287286041667,-0.7337646484375,0.594696044921875,0.024505615234375
2023-11-29T21:25:05.002+01:00,3217.307224041667,-0.7425079345703125,0.5759429931640625,0.0491485595703125
2023-11-29T21:25:05.022+01:00,3217.327162041667,-0.7509002685546875,0.539764404296875,0.056304931640625
2023-11-29T21:25:05.042+01:00,3217.347099041667,-0.794525146484375,0.53424072265625,0.03375244140625
2023-11-29T21:25:05.062+01:00,3217.367037041667,-0.86273193359375,0.55126953125,-0.012481689453125
2023-11-29T21:25:05.082+01:00,3217.386974041667,-0.8993072509765625,0.5623779296875,-0.09625244140625
2023-11-29T21:25:05.102+01:00,3217.406912041667,-0.8929901123046875,0.5321502685546875,-0.167449951171875
2023-11-29T21:25:05.122+01:00,3217.426849041667,-0.923126220703125,0.51080322265625,-0.2415924072265625
2023-11-29T21:25:05.142+01:00,3217.446787041667,-0.9871673583984375,0.4882659912109375,-0.312713623046875
2023-11-29T21:25:05.162+01:00,3217.466724041667,-1.049392700195312,0.44720458984375,-0.366912841796875
2023-11-29T21:25:05.182+01:00,3217.486662041667,-1.073455810546875,0.4262847900390625,-0.419677734375
2023-11-29T21:25:05.202+01:00,3217.506599041667,-1.09552001953125,0.3976287841796875,-0.4386749267578125
2023-11-29T21:25:05.222+01:00,3217.526537041667,-1.07757568359375,0.3940582275390625,-0.438446044921875
2023-11-29T21:25:05.242+01:00,3217.546474041667,-1.050094604492188,0.4028778076171875,-0.437255859375
