loggingTime(txt),accelerometerTimestamp_sinceReboot(s),accelerometerAccelerationX(G),accelerometerAccelerationY(G),accelerometerAccelerationZ(G)
2023-11-22T21:54:23.573+01:00,13911.075042875,-0.2613067626953125,-0.4524383544921875,-0.7394561767578125
2023-11-22T21:54:23.574+01:00,13911.094979875,-0.0938720703125,-0.66595458984375,-0.6964263916015625
2023-11-22T21:54:23.589+01:00,13911.114916875,-0.1294708251953125,-0.6814727783203125,-0.657745361328125
2023-11-22T21:54:23.609+01:00,13911.134854875,-0.1946868896484375,-0.55755615234375,-0.6543121337890625
2023-11-22T21:54:23.629+01:00,13911.154791875,-0.1587982177734375,-0.6150054931640625,-0.63140869140625
2023-11-22T21:54:23.649+01:00,13911.174728875,-0.197967529296875,-0.6030120849609375,-0.603790283203125
2023-11-22T21:54:23.669+01:00,13911.194666875,-0.2275848388671875,-0.5876922607421875,-0.5584259033203125
2023-11-22T21:54:23.689+01:00,13911.214603875,-0.260223388671875,-0.6203765869140625,-0.49169921875
2023-11-22T21:54:23.709+01:00,13911.234540875,-0.3061065673828125,-0.6067657470703125,-0.4334564208984375
2023-11-22T21:54:23.729+01:00,13911.254477875,-0.397857666015625,-0.5632781982421875,-0.4040985107421875
2023-11-22T21:54:23.749+01:00,13911.274415875,-0.446502685546875,-0.6056060791015625,-0.387298583984375
2023-11-22T21:54:23.771+01:00,13911.294352875,-0.501312255859375,-0.4652252197265625,-0.4232940673828125
2023-11-22T21:54:23.792+01:00,13911.314289875,-0.426666259765625,-0.393157958984375,-0.350494384765625
2023-11-22T21:54:23.808+01:00,13911.334227875,-0.372802734375,-0.3934173583984375,-0.2296600341796875
2023-11-22T21:54:23.828+01:00,13911.354164875,-0.4424285888671875,-0.3386688232421875,-0.1693115234375
2023-11-22T21:54:23.848+01:00,13911.374101875,-0.506378173828125,-0.0747833251953125,-0.209930419921875
2023-11-22T21:54:23.868+01:00,13911.394038875,-0.4085693359375,0.24371337890625,-0.456268310546875
2023-11-22T21:54:23.888+01:00,13911.413976875,-0.194671630859375,0.40673828125,-0.7712860107421875
2023-11-22T21:54:23.908+01:00,13911.433913875,-0.09136962890625,0.268890380859375,-1.033233642578125
2023-11-22T21:54:23.928+01:00,13911.453850875,-0.149932861328125,0.1749420166015625,-1.160797119140625
2023-11-22T21:54:23.948+01:00,13911.473788875,-0.186279296875,0.15374755859375,-1.394073486328125
2023-11-22T21:54:23.968+01:00,13911.493725875,-0.1372528076171875,0.092041015625,-1.754592895507812
2023-11-22T21:54:23.988+01:00,13911.513662875,-0.057159423828125,0.0668182373046875,-1.92327880859375
2023-11-22T21:54:24.008+01:00,13911.533599875,-0.072662353515625,-0.057403564453125,-1.908172607421875
2023-11-22T21:54:24.028+01:00,13911.553537875,-0.1128387451171875,-0.135528564453125,-1.747848510742188
2023-11-22T21:54:24.057+01:00,13911.573474875,-0.195831298828125,-0.2320404052734375,-1.588516235351562
2023-11-22T21:54:24.068+01:00,13911.593411875,-0.2674102783203125,-0.2969970703125,-1.415679931640625
2023-11-22T21:54:24.088+01:00,13911.613349875,-0.2703704833984375,-0.4418792724609375,-1.3082275390625
2023-11-22T21:54:24.107+01:00,13911.633286875,-0.3009033203125,-0.5263824462890625,-1.208770751953125
2023-11-22T21:54:24.127+01:00,13911.653223875,-0.3471527099609375,-0.4914398193359375,-1.129226684570312
2023-11-22T21:54:24.147+01:00,13911.673160875,-0.42431640625,-0.4622955322265625,-1.063186645507812
2023-11-22T21:54:24.167+01:00,13911.693098875,-0.4351806640625,-0.4255828857421875,-1.02166748046875
2023-11-22T21:54:24.187+01:00,13911.713035875,-0.4197845458984375,-0.42449951171875,-0.984222412109375
2023-11-22T21:54:24.207+01:00,13911.732972875,-0.40380859375,-0.41058349609375,-0.9246826171875
2023-11-22T21:54:24.227+01:00,13911.752910875,-0.4039459228515625,-0.3549346923828125,-0.8736724853515625
2023-11-22T21:54:24.247+01:00,13911.772847875,-0.403656005859375,-0.3047637939453125,-0.8723907470703125
2023-11-22T21:54:24.267+01:00,13911.792784875,-0.3602142333984375,-0.3665771484375,-0.87744140625
2023-11-22T21:54:24.287+01:00,13911.812721875,-0.3246612548828125,-0.3777618408203125,-0.862640380859375
2023-11-22T21:54:24.307+01:00,13911.832659875,-0.307647705078125,-0.343505859375,-0.8944091796875
2023-11-22T21:54:24.327+01:00,13911.852596875,-0.2789306640625,-0.386383056640625,-0.9266815185546875
2023-11-22T21:54:24.347+01:00,13911.872533875,-0.3089599609375,-0.3980865478515625,-0.9284820556640625
2023-11-22T21:54:24.367+01:00,13911.892471875,-0.37945556640625,-0.2983856201171875,-0.9420623779296875
2023-11-22T21:54:24.387+01:00,13911.912408875,-0.3726654052734375,-0.2680511474609375,-0.937042236328125
2023-11-22T21:54:24.407+01:00,13911.932345875,-0.4110870361328125,-0.25079345703125,-0.8920135498046875
2023-11-22T21:54:24.426+01:00,13911.952282875,-0.4321746826171875,-0.2330474853515625,-0.797943115234375
2023-11-22T21:54:24.446+01:00,13911.972220875,-0.51068115234375,-0.3162078857421875,-0.63970947265625
2023-11-22T21:54:24.466+01:00,13911.992157875,-0.6385955810546875,-0.27337646484375,-0.54669189453125
2023-11-22T21:54:24.486+01:00,13912.012094875,-0.7156829833984375,-0.081085205078125,-0.450592041015625
2023-11-22T21:54:24.506+01:00,13912.032032875,-0.7105255126953125,0.1246490478515625,-0.2837066650390625
2023-11-22T21:54:24.526+01:00,13912.0519715,-0.5634765625,0.064544677734375,-0.143157958984375
2023-11-22T21:54:24.546+01:00,13912.0719085,-0.5356903076171875,-0.117706298828125,-0.0186614990234375
2023-11-22T21:54:24.566+01:00,13912.0918455,-0.5535888671875,-0.1850738525390625,0.0517120361328125
2023-11-22T21:54:24.586+01:00,13912.1117835,-0.7504119873046875,-0.0233306884765625,0.0524749755859375
2023-11-22T21:54:24.606+01:00,13912.1317205,-0.9189605712890625,0.2261962890625,0.02093505859375
2023-11-22T21:54:24.626+01:00,13912.1516575,-1.06756591796875,0.68511962890625,0.0215606689453125
2023-11-22T21:54:24.646+01:00,13912.1715955,-1.076553344726562,0.730224609375,0.1248931884765625
2023-11-22T21:54:24.666+01:00,13912.1915325,-1.28228759765625,0.9908447265625,0.1053314208984375
2023-11-22T21:54:24.686+01:00,13912.2114695,-1.40777587890625,1.6732177734375,-0.378662109375
2023-11-22T21:54:24.706+01:00,13912.2314075,-1.203598022460938,1.722442626953125,-0.52386474609375
2023-11-22T21:54:24.726+01:00,13912.2513445,-1.329254150390625,1.039413452148438,-0.2962646484375
2023-11-22T21:54:24.745+01:00,13912.2712815,-1.3521728515625,0.9251861572265625,-0.433258056640625
2023-11-22T21:54:24.765+01:00,13912.2912185,-1.483245849609375,1.350006103515625,-0.5466156005859375
2023-11-22T21:54:24.786+01:00,13912.3111565,-1.490936279296875,1.5386962890625,-0.8455047607421875
2023-11-22T21:54:24.805+01:00,13912.3310935,-1.372207641601562,1.427703857421875,-0.7149658203125
2023-11-22T21:54:24.825+01:00,13912.3510305,-1.359130859375,1.194320678710938,-0.59686279296875
2023-11-22T21:54:24.845+01:00,13912.3709685,-1.214080810546875,1.145233154296875,-0.781219482421875
2023-11-22T21:54:24.865+01:00,13912.3909055,-1.041046142578125,1.05841064453125,-1.02349853515625
2023-11-22T21:54:24.885+01:00,13912.4108425,-1.001358032226562,0.614349365234375,-0.7416534423828125
2023-11-22T21:54:24.905+01:00,13912.4307795,-0.99224853515625,0.5251922607421875,-0.658660888671875
2023-11-22T21:54:24.925+01:00,13912.4507175,-0.91717529296875,0.7147216796875,-0.745086669921875
2023-11-22T21:54:24.945+01:00,13912.4706545,-0.871429443359375,0.74591064453125,-0.7884674072265625
2023-11-22T21:54:24.965+01:00,13912.4905915,-0.8609771728515625,0.50494384765625,-0.826568603515625
2023-11-22T21:54:24.985+01:00,13912.5105295,-0.8268280029296875,0.4709625244140625,-0.801300048828125
2023-11-22T21:54:25.005+01:00,13912.5304665,-0.7757720947265625,0.500701904296875,-0.75653076171875
2023-11-22T21:54:25.025+01:00,13912.5504035,-0.68798828125,0.5110626220703125,-0.691314697265625
2023-11-22T21:54:25.045+01:00,13912.5703415,-0.6472930908203125,0.494354248046875,-0.6376495361328125
2023-11-22T21:54:25.065+01:00,13912.5902785,-0.6275482177734375,0.5001983642578125,-0.5143585205078125
2023-11-22T21:54:25.084+01:00,13912.6102155,-0.5921173095703125,0.4538116455078125,-0.422454833984375
2023-11-22T21:54:25.105+01:00,13912.6301525,-0.5401763916015625,0.4391326904296875,-0.3550872802734375
2023-11-22T21:54:25.124+01:00,13912.6500905,-0.4633941650390625,0.401519775390625,-0.309234619140625
2023-11-22T21:54:25.144+01:00,13912.6700275,-0.3690338134765625,0.442901611328125,-0.1538848876953125
2023-11-22T21:54:25.164+01:00,13912.6899645,-0.3311004638671875,0.45416259765625,0.0412445068359375
2023-11-22T21:54:25.184+01:00,13912.7099025,-0.27056884765625,0.4895782470703125,0.33856201171875
2023-11-22T21:54:25.205+01:00,13912.7298395,-0.1510772705078125,0.637969970703125,0.7009429931640625
2023-11-22T21:54:25.224+01:00,13912.7497765,0.020904541015625,0.7660064697265625,1.32757568359375
2023-11-22T21:54:25.244+01:00,13912.7697145,0.0115814208984375,0.97161865234375,2.107650756835938
2023-11-22T21:54:25.264+01:00,13912.7896515,-0.285858154296875,1.38507080078125,2.950714111328125
2023-11-22T21:54:25.284+01:00,13912.8095885,-0.6665496826171875,1.786895751953125,3.664886474609375
2023-11-22T21:54:25.304+01:00,13912.8295255,-1.613418579101562,1.787322998046875,3.571853637695312
2023-11-22T21:54:25.324+01:00,13912.8494635,-3.768966674804688,1.23095703125,2.99969482421875
2023-11-22T21:54:25.344+01:00,13912.8694005,-5.766372680664062,2.423568725585938,3.581924438476562
2023-11-22T21:54:25.364+01:00,13912.8893375,-7.6171875,1.678695678710938,2.2078857421875
2023-11-22T21:54:25.383+01:00,13912.9092755,-8.62298583984375,2.587158203125,0.610260009765625
2023-11-22T21:54:25.403+01:00,13912.9292125,-8.350387573242188,1.035400390625,-1.121917724609375
2023-11-22T21:54:25.423+01:00,13912.9491495,-6.2928466796875,0.103973388671875,-1.907302856445312
2023-11-22T21:54:25.443+01:00,13912.9690875,-4.277496337890625,1.503753662109375,3.4801025390625
2023-11-22T21:54:25.463+01:00,13912.9890245,-4.8970947265625,-1.297470092773438,1.005462646484375
2023-11-22T21:54:25.483+01:00,13913.0089615,-3.701919555664062,-1.947891235351562,1.187713623046875
2023-11-22T21:54:25.503+01:00,13913.0288995,-4.15679931640625,-0.947967529296875,2.77288818359375
2023-11-22T21:54:25.523+01:00,13913.04883616667,-1.927780151367188,0.957672119140625,2.127548217773438
2023-11-22T21:54:25.543+01:00,13913.06877316667,-2.404449462890625,-0.696319580078125,0.8417205810546875
2023-11-22T21:54:25.563+01:00,13913.08871016667,-2.562713623046875,-2.278045654296875,-0.454803466796875
2023-11-22T21:54:25.583+01:00,13913.10864816667,-2.187088012695312,-1.160202026367188,-1.855728149414062
2023-11-22T21:54:25.603+01:00,13913.12858516667,-1.373519897460938,-0.79864501953125,-1.736160278320312
2023-11-22T21:54:25.623+01:00,13913.14852216667,-0.89410400390625,-0.0591583251953125,-0.8456573486328125
2023-11-22T21:54:25.643+01:00,13913.16846016667,-0.5971527099609375,-0.278350830078125,-0.2908172607421875
2023-11-22T21:54:25.662+01:00,13913.18839716667,-0.48236083984375,-0.407562255859375,-0.1505584716796875
2023-11-22T21:54:25.683+01:00,13913.20833416667,-0.393798828125,-0.5663299560546875,-0.056488037109375
2023-11-22T21:54:25.702+01:00,13913.22827216667,-0.4127349853515625,-0.3982391357421875,-0.063995361328125
2023-11-22T21:54:25.722+01:00,13913.24820916667,-0.404815673828125,-0.116943359375,-0.1679534912109375
2023-11-22T21:54:25.742+01:00,13913.26814616667,-0.5174102783203125,0.1310577392578125,-0.087249755859375
2023-11-22T21:54:25.762+01:00,13913.28808416667,-0.6456146240234375,0.4682464599609375,-0.1207427978515625
2023-11-22T21:54:25.782+01:00,13913.30802116667,-0.7583465576171875,1.186492919921875,-0.268798828125
2023-11-22T21:54:25.802+01:00,13913.32795816667,-1.083572387695312,1.956771850585938,-0.2527618408203125
2023-11-22T21:54:25.822+01:00,13913.34789516667,-1.1322021484375,2.692123413085938,-0.2673492431640625
2023-11-22T21:54:25.842+01:00,13913.36783316667,-0.854522705078125,2.61029052734375,-0.271148681640625
2023-11-22T21:54:25.862+01:00,13913.38777016667,-0.564300537109375,2.069992065429688,-0.0300750732421875
2023-11-22T21:54:25.882+01:00,13913.40770716667,-0.439788818359375,1.737213134765625,-0.038055419921875
2023-11-22T21:54:25.902+01:00,13913.42764516667,-0.3452606201171875,1.605682373046875,-0.2875213623046875
2023-11-22T21:54:25.922+01:00,13913.44758216667,-0.348052978515625,1.551376342773438,-0.080780029296875
2023-11-22T21:54:25.942+01:00,13913.46751916667,-0.405731201171875,1.267501831054688,0.0033111572265625
2023-11-22T21:54:25.962+01:00,13913.48745716667,-0.4832611083984375,0.8643341064453125,-0.0823516845703125
2023-11-22T21:54:25.982+01:00,13913.50739416667,-0.5359649658203125,0.9432525634765625,0.0214996337890625
2023-11-22T21:54:26.002+01:00,13913.52733116667,-0.584136962890625,1.032791137695312,0.1504058837890625
2023-11-22T21:54:26.021+01:00,13913.54726916667,-0.5794219970703125,1.065994262695312,0.21612548828125
2023-11-22T21:54:26.041+01:00,13913.56720616667,-0.60845947265625,1.221832275390625,0.245574951171875
2023-11-22T21:54:26.061+01:00,13913.58714316667,-0.613494873046875,1.242691040039062,0.2333221435546875
2023-11-22T21:54:26.081+01:00,13913.60708116667,-0.6050872802734375,1.143218994140625,0.1704559326171875
2023-11-22T21:54:26.101+01:00,13913.62701816667,-0.61199951171875,1.04852294921875,0.1423797607421875
2023-11-22T21:54:26.121+01:00,13913.64695516667,-0.62127685546875,0.9774627685546875,0.1071929931640625
2023-11-22T21:54:26.141+01:00,13913.66689316667,-0.628753662109375,0.9235687255859375,0.0772705078125
2023-11-22T21:54:26.161+01:00,13913.68683016667,-0.6527252197265625,0.9282073974609375,0.0540924072265625
2023-11-22T21:54:26.181+01:00,13913.70676716667,-0.6889190673828125,0.9119720458984375,0.04241943359375
2023-11-22T21:54:26.201+01:00,13913.72670516667,-0.6941375732421875,0.8726806640625,0.025634765625
2023-11-22T21:54:26.221+01:00,13913.74664216667,-0.6922454833984375,0.7925872802734375,0.0588226318359375
2023-11-22T21:54:26.241+01:00,13913.76657916667,-0.68206787109375,0.7447509765625,0.0615692138671875
2023-11-22T21:54:26.261+01:00,13913.78651716667,-0.6238250732421875,0.7560577392578125,0.077392578125
2023-11-22T21:54:26.281+01:00,13913.80645416667,-0.5404510498046875,0.763153076171875,0.11566162109375
2023-11-22T21:54:26.301+01:00,13913.82639116667,-0.465972900390625,0.7641754150390625,0.1334381103515625
2023-11-22T21:54:26.321+01:00,13913.84632816667,-0.3819122314453125,0.812713623046875,0.0975799560546875
2023-11-22T21:54:26.340+01:00,13913.86626616667,-0.3361053466796875,0.9273834228515625,0.0623016357421875
2023-11-22T21:54:26.360+01:00,13913.88620316667,-0.3389739990234375,0.9965972900390625,0.031768798828125
2023-11-22T21:54:26.380+01:00,13913.90614016667,-0.370513916015625,1.046371459960938,-0.0400848388671875
2023-11-22T21:54:26.400+01:00,13913.92607816667,-0.3943023681640625,1.1881103515625,-0.1762542724609375
2023-11-22T21:54:26.420+01:00,13913.94601516667,-0.4079437255859375,1.274444580078125,-0.2806549072265625
2023-11-22T21:54:26.440+01:00,13913.96595216667,-0.4259185791015625,1.279922485351562,-0.3982696533203125
2023-11-22T21:54:26.460+01:00,13913.98589016667,-0.3488006591796875,1.216567993164062,-0.493072509765625
2023-11-22T21:54:26.480+01:00,13914.00582716667,-0.2414398193359375,1.143524169921875,-0.4810791015625
2023-11-22T21:54:26.500+01:00,13914.02576416667,-0.18133544921875,1.080841064453125,-0.348236083984375
2023-11-22T21:54:26.520+01:00,13914.04570175,-0.198150634765625,0.924102783203125,-0.3520355224609375
2023-11-22T21:54:26.540+01:00,13914.06563875,-0.24932861328125,0.84906005859375,-0.504058837890625
2023-11-22T21:54:26.560+01:00,13914.08557575,-0.2742919921875,0.8763275146484375,-0.4943389892578125
2023-11-22T21:54:26.580+01:00,13914.10551375,-0.275177001953125,0.97808837890625,-0.358123779296875
2023-11-22T21:54:26.600+01:00,13914.12545075,-0.35638427734375,0.9629364013671875,-0.2687530517578125
2023-11-22T21:54:26.620+01:00,13914.14538775,-0.41668701171875,0.97637939453125,-0.1908721923828125
2023-11-22T21:54:26.640+01:00,13914.16532575,-0.4742584228515625,1.009475708007812,-0.1150360107421875
2023-11-22T21:54:26.659+01:00,13914.18526275,-0.553131103515625,0.9959564208984375,-0.07733154296875
2023-11-22T21:54:26.679+01:00,13914.20519975,-0.6048583984375,0.96368408203125,-0.055328369140625
2023-11-22T21:54:26.699+01:00,13914.22513775,-0.6118011474609375,0.9580841064453125,-0.0513763427734375
2023-11-22T21:54:26.719+01:00,13914.24507475,-0.6110382080078125,0.90460205078125,-0.0169830322265625
2023-11-22T21:54:26.739+01:00,13914.26501175,-0.620635986328125,0.863250732421875,-0.028472900390625
2023-11-22T21:54:26.759+01:00,13914.28494975,-0.629852294921875,0.8046417236328125,-0.044830322265625
2023-11-22T21:54:26.779+01:00,13914.30488675,-0.6215362548828125,0.7473297119140625,-0.0288238525390625
2023-11-22T21:54:26.799+01:00,13914.32482375,-0.6245574951171875,0.696990966796875,-0.03948974609375
2023-11-22T21:54:26.819+01:00,13914.34476175,-0.6053924560546875,0.6568450927734375,-0.038818359375
2023-11-22T21:54:26.839+01:00,13914.36469875,-0.5869293212890625,0.5977325439453125,-0.0405731201171875
2023-11-22T21:54:26.859+01:00,13914.38463575,-0.5864715576171875,0.6076202392578125,-0.0481414794921875
2023-11-22T21:54:26.879+01:00,13914.40457375,-0.6234283447265625,0.666259765625,-0.04937744140625
2023-11-22T21:54:26.899+01:00,13914.42451075,-0.6588592529296875,0.7006378173828125,-0.0721893310546875
2023-11-22T21:54:26.919+01:00,13914.44444775,-0.6592864990234375,0.7234649658203125,-0.0794677734375
2023-11-22T21:54:26.939+01:00,13914.46438475,-0.648590087890625,0.7099609375,-0.126861572265625
2023-11-22T21:54:26.959+01:00,13914.48432275,-0.6139984130859375,0.694061279296875,-0.2113189697265625
2023-11-22T21:54:26.978+01:00,13914.50425975,-0.5858612060546875,0.7166748046875,-0.318267822265625
2023-11-22T21:54:26.998+01:00,13914.52419675,-0.5109710693359375,0.8164825439453125,-0.36199951171875
2023-11-22T21:54:27.018+01:00,13914.54413475,-0.481170654296875,0.7411041259765625,-0.396881103515625
2023-11-22T21:54:27.038+01:00,13914.56407175,-0.3969573974609375,0.4331512451171875,-0.5044708251953125
2023-11-22T21:54:27.058+01:00,13914.58400875,-0.2949371337890625,0.1739959716796875,-0.3872222900390625
2023-11-22T21:54:27.078+01:00,13914.60394675,-0.32135009765625,0.199493408203125,-0.32733154296875
2023-11-22T21:54:27.098+01:00,13914.62388375,-0.4345855712890625,0.5487213134765625,-0.337799072265625
2023-11-22T21:54:27.118+01:00,13914.64382075,-0.464111328125,0.75897216796875,-0.595306396484375
2023-11-22T21:54:27.138+01:00,13914.66375875,-0.44683837890625,0.9919281005859375,-0.605072021484375
2023-11-22T21:54:27.158+01:00,13914.68369575,-0.477508544921875,0.57794189453125,-0.414703369140625
2023-11-22T21:54:27.178+01:00,13914.70363275,-0.35699462890625,0.51641845703125,-0.3928375244140625
2023-11-22T21:54:27.198+01:00,13914.72357075,-0.2739410400390625,0.7157440185546875,-0.508209228515625
2023-11-22T21:54:27.218+01:00,13914.74350775,-0.2959442138671875,1.085235595703125,-0.4839324951171875
2023-11-22T21:54:27.238+01:00,13914.76344475,-0.3696136474609375,1.199081420898438,-0.4692230224609375
2023-11-22T21:54:27.258+01:00,13914.78338275,-0.4090576171875,1.2362060546875,-0.37969970703125
2023-11-22T21:54:27.278+01:00,13914.80331975,-0.43182373046875,1.237030029296875,-0.3177337646484375
2023-11-22T21:54:27.297+01:00,13914.82325675,-0.477996826171875,1.158248901367188,-0.3655853271484375
2023-11-22T21:54:27.317+01:00,13914.84319475,-0.52362060546875,1.095504760742188,-0.4572906494140625
2023-11-22T21:54:27.337+01:00,13914.86313175,-0.646331787109375,1.058319091796875,-0.5170745849609375
2023-11-22T21:54:27.357+01:00,13914.88306875,-0.838287353515625,0.924652099609375,-0.532470703125
2023-11-22T21:54:27.377+01:00,13914.90300675,-1.035354614257812,0.7544403076171875,-0.5864410400390625
2023-11-22T21:54:27.397+01:00,13914.92294375,-1.17529296875,0.568328857421875,-0.5994415283203125
2023-11-22T21:54:27.417+01:00,13914.94288075,-1.32440185546875,0.517974853515625,-0.59967041015625
2023-11-22T21:54:27.437+01:00,13914.96281875,-1.455673217773438,0.5703125,-0.53668212890625
2023-11-22T21:54:27.457+01:00,13914.98275575,-1.404266357421875,0.5021820068359375,-0.4578857421875
2023-11-22T21:54:27.477+01:00,13915.00269275,-1.234420776367188,0.4390869140625,-0.3833160400390625
2023-11-22T21:54:27.497+01:00,13915.02263075,-1.105194091796875,0.4102630615234375,-0.3337860107421875
2023-11-22T21:54:27.517+01:00,13915.04256741667,-0.9985504150390625,0.379638671875,-0.309295654296875
2023-11-22T21:54:27.537+01:00,13915.06250441667,-0.8780364990234375,0.363616943359375,-0.309234619140625
2023-11-22T21:54:27.557+01:00,13915.08244241667,-0.7678375244140625,0.35662841796875,-0.3140716552734375
2023-11-22T21:54:27.577+01:00,13915.10237941667,-0.68865966796875,0.329559326171875,-0.3076019287109375
2023-11-22T21:54:27.597+01:00,13915.12231641667,-0.6204071044921875,0.327545166015625,-0.281097412109375
2023-11-22T21:54:27.616+01:00,13915.14225441667,-0.56549072265625,0.3437957763671875,-0.2700653076171875
2023-11-22T21:54:27.636+01:00,13915.16219141667,-0.5162506103515625,0.3639373779296875,-0.2815704345703125
2023-11-22T21:54:27.656+01:00,13915.18212841667,-0.4844512939453125,0.41546630859375,-0.330230712890625
2023-11-22T21:54:27.676+01:00,13915.20206641667,-0.4583892822265625,0.4526824951171875,-0.3561859130859375
2023-11-22T21:54:27.696+01:00,13915.22200341667,-0.448516845703125,0.4146728515625,-0.3490753173828125
2023-11-22T21:54:27.716+01:00,13915.24194041667,-0.432281494140625,0.3776397705078125,-0.3447418212890625
2023-11-22T21:54:27.736+01:00,13915.26187841667,-0.4420928955078125,0.3937225341796875,-0.3699188232421875
2023-11-22T21:54:27.756+01:00,13915.28181541667,-0.4727325439453125,0.4050140380859375,-0.4036865234375
2023-11-22T21:54:27.776+01:00,13915.30175241667,-0.5357513427734375,0.4074859619140625,-0.4273529052734375
2023-11-22T21:54:27.796+01:00,13915.32169041667,-0.624755859375,0.4147186279296875,-0.4332275390625
2023-11-22T21:54:27.816+01:00,13915.34162741667,-0.7442474365234375,0.421844482421875,-0.419036865234375
2023-11-22T21:54:27.836+01:00,13915.36156441667,-0.8593597412109375,0.4010772705078125,-0.381591796875
2023-11-22T21:54:27.856+01:00,13915.38150241667,-0.9692230224609375,0.3994598388671875,-0.350982666015625
2023-11-22T21:54:27.876+01:00,13915.40143941667,-1.1451416015625,0.460845947265625,-0.373016357421875
2023-11-22T21:54:27.896+01:00,13915.42137641667,-1.23193359375,0.5145721435546875,-0.387115478515625
2023-11-22T21:54:27.915+01:00,13915.44131441667,-1.1417236328125,0.5268707275390625,-0.37445068359375
2023-11-22T21:54:27.935+01:00,13915.46125141667,-1.062606811523438,0.4977569580078125,-0.3450469970703125
2023-11-22T21:54:27.955+01:00,13915.48118841667,-1.042877197265625,0.5171661376953125,-0.32598876953125
2023-11-22T21:54:27.975+01:00,13915.50112641667,-1.067764282226562,0.5927276611328125,-0.3663330078125
2023-11-22T21:54:27.995+01:00,13915.52106341667,-1.111053466796875,0.6423492431640625,-0.405029296875
2023-11-22T21:54:28.015+01:00,13915.54100041667,-1.140029907226562,0.5871429443359375,-0.3719329833984375
2023-11-22T21:54:28.035+01:00,13915.56093841667,-1.120880126953125,0.4900665283203125,-0.299560546875
2023-11-22T21:54:28.055+01:00,13915.58087541667,-1.103607177734375,0.3721466064453125,-0.2707977294921875
2023-11-22T21:54:28.075+01:00,13915.60081241667,-1.056976318359375,0.3034515380859375,-0.2722930908203125
2023-11-22T21:54:28.095+01:00,13915.62074941667,-0.9744720458984375,0.2630767822265625,-0.291839599609375
2023-11-22T21:54:28.115+01:00,13915.64068741667,-0.8969573974609375,0.1944580078125,-0.2861785888671875
2023-11-22T21:54:28.135+01:00,13915.66062441667,-0.823883056640625,0.1316680908203125,-0.281707763671875
2023-11-22T21:54:28.155+01:00,13915.68056141667,-0.768890380859375,0.1390533447265625,-0.27655029296875
2023-11-22T21:54:28.175+01:00,13915.70049941667,-0.73919677734375,0.15802001953125,-0.284881591796875
2023-11-22T21:54:28.195+01:00,13915.72043641667,-0.7273101806640625,0.2136383056640625,-0.2885589599609375
2023-11-22T21:54:28.215+01:00,13915.74037341667,-0.7167510986328125,0.245880126953125,-0.2767486572265625
2023-11-22T21:54:28.235+01:00,13915.76031141667,-0.7465057373046875,0.2668609619140625,-0.2869720458984375
2023-11-22T21:54:28.254+01:00,13915.78024841667,-0.8021240234375,0.3098602294921875,-0.30322265625
2023-11-22T21:54:28.274+01:00,13915.80018541667,-0.877349853515625,0.3244476318359375,-0.33380126953125
2023-11-22T21:54:28.294+01:00,13915.82012341667,-0.9606170654296875,0.316986083984375,-0.3670654296875
2023-11-22T21:54:28.314+01:00,13915.84006041667,-1.085205078125,0.291534423828125,-0.3949127197265625
2023-11-22T21:54:28.334+01:00,13915.85999741667,-1.244766235351562,0.266265869140625,-0.435791015625
2023-11-22T21:54:28.354+01:00,13915.87993541667,-1.370010375976562,0.2551116943359375,-0.4434356689453125
2023-11-22T21:54:28.374+01:00,13915.89987241667,-1.370758056640625,0.191619873046875,-0.393524169921875
2023-11-22T21:54:28.394+01:00,13915.91980941667,-1.25689697265625,0.10906982421875,-0.3153839111328125
2023-11-22T21:54:28.414+01:00,13915.93974741667,-1.258056640625,0.104278564453125,-0.2580718994140625
2023-11-22T21:54:28.434+01:00,13915.95968441667,-1.24993896484375,0.205657958984375,-0.2264862060546875
2023-11-22T21:54:28.454+01:00,13915.97962141667,-1.069488525390625,0.2645111083984375,-0.2094879150390625
2023-11-22T21:54:28.474+01:00,13915.99955941667,-0.830810546875,0.187774658203125,-0.1900482177734375
2023-11-22T21:54:28.494+01:00,13916.01949641667,-0.685821533203125,0.0745849609375,-0.1987457275390625
2023-11-22T21:54:28.514+01:00,13916.03943341667,-0.7167205810546875,0.130218505859375,-0.2787322998046875
2023-11-22T21:54:28.534+01:00,13916.05937175,-0.8936920166015625,0.2338104248046875,-0.3846893310546875
2023-11-22T21:54:28.554+01:00,13916.07930875,-1.060989379882812,0.0563201904296875,-0.41259765625
2023-11-22T21:54:28.573+01:00,13916.09924575,-1.138717651367188,0.167755126953125,-0.4510498046875
2023-11-22T21:54:28.593+01:00,13916.11918375,-1.036056518554688,0.353057861328125,-0.5626220703125
2023-11-22T21:54:28.613+01:00,13916.13912075,-0.8184814453125,0.19464111328125,-0.404693603515625
2023-11-22T21:54:28.633+01:00,13916.15905775,-0.6275787353515625,-0.0251312255859375,-0.2852783203125
2023-11-22T21:54:28.653+01:00,13916.17899575,-0.64361572265625,-0.0198822021484375,-0.1852264404296875
2023-11-22T21:54:28.673+01:00,13916.19893275,-0.6339263916015625,0.003631591796875,-0.09136962890625
2023-11-22T21:54:28.693+01:00,13916.21886975,-0.5894012451171875,0.3372650146484375,-0.07763671875
2023-11-22T21:54:28.713+01:00,13916.23880775,-0.5970611572265625,0.5646820068359375,-0.3148956298828125
2023-11-22T21:54:28.733+01:00,13916.25874475,-0.5740509033203125,0.6408538818359375,-0.5457305908203125
2023-11-22T21:54:28.753+01:00,13916.27868175,-0.540771484375,0.4389801025390625,-0.390228271484375
2023-11-22T21:54:28.773+01:00,13916.29861975,-0.56640625,-0.1514739990234375,-0.3538818359375
2023-11-22T21:54:28.793+01:00,13916.31855675,-0.60675048828125,0.1125946044921875,-0.336029052734375
2023-11-22T21:54:28.813+01:00,13916.33849375,-0.697662353515625,0.4113006591796875,-0.42083740234375
2023-11-22T21:54:28.833+01:00,13916.35843175,-0.7828826904296875,0.517333984375,-0.4552001953125
2023-11-22T21:54:28.852+01:00,13916.37836875,-0.8282623291015625,0.5431365966796875,-0.5037689208984375
2023-11-22T21:54:28.872+01:00,13916.39830575,-0.8228759765625,0.4837493896484375,-0.565521240234375
2023-11-22T21:54:28.892+01:00,13916.41824375,-0.860260009765625,0.4384307861328125,-0.5814666748046875
2023-11-22T21:54:28.912+01:00,13916.43818075,-0.92486572265625,0.5667572021484375,-0.63836669921875
2023-11-22T21:54:28.932+01:00,13916.45811775,-0.9882049560546875,0.5728302001953125,-0.7381134033203125
2023-11-22T21:54:28.952+01:00,13916.47805575,-1.039169311523438,0.491546630859375,-0.741241455078125
2023-11-22T21:54:28.972+01:00,13916.49799275,-1.042877197265625,0.421051025390625,-0.6943359375
2023-11-22T21:54:28.992+01:00,13916.51792975,-1.098480224609375,0.405426025390625,-0.657379150390625
2023-11-22T21:54:29.012+01:00,13916.53786775,-1.293075561523438,0.4891204833984375,-0.7342071533203125
2023-11-22T21:54:29.032+01:00,13916.55780475,-1.27020263671875,0.5055694580078125,-0.720794677734375
2023-11-22T21:54:29.052+01:00,13916.57774175,-1.13555908203125,0.3832855224609375,-0.6016845703125
2023-11-22T21:54:29.072+01:00,13916.59767875,-1.003005981445312,0.319549560546875,-0.5011749267578125
2023-11-22T21:54:29.092+01:00,13916.61761675,-0.89923095703125,0.36932373046875,-0.4527740478515625
2023-11-22T21:54:29.112+01:00,13916.63755375,-0.925537109375,0.37744140625,-0.4287872314453125
2023-11-22T21:54:29.132+01:00,13916.65749175,-0.98876953125,0.3507080078125,-0.411529541015625
2023-11-22T21:54:29.152+01:00,13916.67742875,-1.004425048828125,0.3032073974609375,-0.3994598388671875
2023-11-22T21:54:29.172+01:00,13916.69736575,-0.9991455078125,0.26654052734375,-0.3917999267578125
2023-11-22T21:54:29.191+01:00,13916.71730275,-0.9541473388671875,0.2511138916015625,-0.381866455078125
2023-11-22T21:54:29.211+01:00,13916.73724075,-0.8926239013671875,0.2317657470703125,-0.362884521484375
2023-11-22T21:54:29.231+01:00,13916.75717775,-0.83489990234375,0.2385101318359375,-0.335693359375
2023-11-22T21:54:29.251+01:00,13916.77711475,-0.7941741943359375,0.2386016845703125,-0.3531494140625
2023-11-22T21:54:29.271+01:00,13916.79705275,-0.7750091552734375,0.3106689453125,-0.3431854248046875
2023-11-22T21:54:29.291+01:00,13916.81698975,-0.743621826171875,0.23468017578125,-0.3247528076171875
2023-11-22T21:54:29.311+01:00,13916.83692675,-0.6909637451171875,0.2327728271484375,-0.3362274169921875
2023-11-22T21:54:29.331+01:00,13916.85686475,-0.63446044921875,0.179046630859375,-0.3081207275390625
2023-11-22T21:54:29.351+01:00,13916.87680175,-0.5971832275390625,0.08306884765625,-0.29449462890625
2023-11-22T21:54:29.371+01:00,13916.89673875,-0.59429931640625,0.1097869873046875,-0.35040283203125
2023-11-22T21:54:29.391+01:00,13916.91667675,-0.5851287841796875,0.2425537109375,-0.4000396728515625
2023-11-22T21:54:29.411+01:00,13916.93661375,-0.543304443359375,0.2248077392578125,-0.403961181640625
2023-11-22T21:54:29.431+01:00,13916.95655075,-0.525115966796875,0.1405487060546875,-0.3852386474609375
2023-11-22T21:54:29.451+01:00,13916.97648875,-0.448211669921875,0.2341156005859375,-0.3041229248046875
2023-11-22T21:54:29.471+01:00,13916.99642575,-0.5065765380859375,-0.10223388671875,-0.3697052001953125
2023-11-22T21:54:29.491+01:00,13917.01636275,-0.45245361328125,-0.14727783203125,-0.30841064453125
2023-11-22T21:54:29.510+01:00,13917.03630075,-0.468017578125,0.2166748046875,-0.2998046875
2023-11-22T21:54:29.530+01:00,13917.05623691667,-0.317230224609375,0.3439178466796875,-0.2674560546875
2023-11-22T21:54:29.550+01:00,13917.07617391667,-0.2108612060546875,0.1772613525390625,-0.3057708740234375
2023-11-22T21:54:29.570+01:00,13917.09611191667,-0.20263671875,0.2359771728515625,-0.4492645263671875
2023-11-22T21:54:29.590+01:00,13917.11604891667,-0.2647247314453125,0.25390625,-0.38580322265625
2023-11-22T21:54:29.610+01:00,13917.13598591667,-0.34283447265625,0.009796142578125,-0.2527618408203125
2023-11-22T21:54:29.630+01:00,13917.15592391667,-0.2972259521484375,-0.0745391845703125,-0.1313629150390625
2023-11-22T21:54:29.650+01:00,13917.17586091667,-0.3267059326171875,0.153350830078125,-0.1126861572265625
2023-11-22T21:54:29.670+01:00,13917.19579791667,-0.418731689453125,0.2680206298828125,-0.156494140625
2023-11-22T21:54:29.690+01:00,13917.21573591667,-0.65435791015625,0.2579803466796875,-0.06805419921875
2023-11-22T21:54:29.710+01:00,13917.23567291667,-0.9549407958984375,0.2001190185546875,-0.1558074951171875
2023-11-22T21:54:29.730+01:00,13917.25560991667,-1.067001342773438,0.2701873779296875,-0.323272705078125
2023-11-22T21:54:29.750+01:00,13917.27554791667,-1.089950561523438,0.3572235107421875,-0.4888153076171875
2023-11-22T21:54:29.770+01:00,13917.29548491667,-1.244949340820312,0.3083648681640625,-0.4717559814453125
2023-11-22T21:54:29.790+01:00,13917.31542191667,-1.392257690429688,0.1032867431640625,-0.3777923583984375
2023-11-22T21:54:29.810+01:00,13917.33535991667,-1.554306030273438,-0.0767364501953125,-0.23431396484375
2023-11-22T21:54:29.829+01:00,13917.35529691667,-1.612289428710938,-0.2596588134765625,-0.07208251953125
2023-11-22T21:54:29.849+01:00,13917.37523391667,-1.671218872070312,-0.4228973388671875,0.120513916015625
2023-11-22T21:54:29.869+01:00,13917.39517191667,-1.620285034179688,-0.3978118896484375,0.147430419921875
2023-11-22T21:54:29.889+01:00,13917.41510891667,-1.578704833984375,-0.2116241455078125,0.1234283447265625
2023-11-22T21:54:29.909+01:00,13917.43504591667,-1.608795166015625,-0.115478515625,0.196075439453125
2023-11-22T21:54:29.929+01:00,13917.45498391667,-1.59197998046875,-0.2069244384765625,0.2406463623046875
2023-11-22T21:54:29.949+01:00,13917.47492091667,-1.754547119140625,-0.794647216796875,0.306365966796875
2023-11-22T21:54:29.969+01:00,13917.49485791667,-1.553802490234375,0.7450714111328125,0.0274505615234375
2023-11-22T21:54:29.989+01:00,13917.51479591667,-1.434555053710938,0.3003082275390625,-0.1425018310546875
2023-11-22T21:54:30.009+01:00,13917.53473291667,-1.478927612304688,0.4459991455078125,-0.3604278564453125
2023-11-22T21:54:30.029+01:00,13917.55466991667,-1.389572143554688,0.712982177734375,-0.5153656005859375
2023-11-22T21:54:30.049+01:00,13917.57460691667,-1.404800415039062,0.5910797119140625,-0.5992584228515625
2023-11-22T21:54:30.069+01:00,13917.59454491667,-1.389358520507812,0.9028778076171875,-0.47491455078125
2023-11-22T21:54:30.089+01:00,13917.61448191667,-1.350601196289062,0.8140869140625,-0.4951019287109375
2023-11-22T21:54:30.109+01:00,13917.63441891667,-1.338287353515625,0.9071807861328125,-0.588958740234375
2023-11-22T21:54:30.129+01:00,13917.65435691667,-1.374237060546875,0.975494384765625,-0.5215911865234375
2023-11-22T21:54:30.148+01:00,13917.67429391667,-1.50738525390625,0.9125518798828125,-0.5630035400390625
2023-11-22T21:54:30.168+01:00,13917.69423091667,-1.549118041992188,1.012741088867188,-0.4804840087890625
2023-11-22T21:54:30.188+01:00,13917.71416891667,-1.682769775390625,0.9647064208984375,-0.548492431640625
2023-11-22T21:54:30.208+01:00,13917.73410591667,-1.662353515625,0.841949462890625,-0.631805419921875
2023-11-22T21:54:30.228+01:00,13917.75404291667,-1.574966430664062,0.8990020751953125,-0.5001983642578125
2023-11-22T21:54:30.248+01:00,13917.77398091667,-1.599868774414062,0.9429473876953125,-0.430511474609375
2023-11-22T21:54:30.268+01:00,13917.79391791667,-1.680953979492188,0.9994049072265625,-0.53277587890625
2023-11-22T21:54:30.288+01:00,13917.81385491667,-1.6259765625,0.7944793701171875,-0.5363311767578125
2023-11-22T21:54:30.308+01:00,13917.83379291667,-1.596389770507812,1.018768310546875,-0.4593353271484375
2023-11-22T21:54:30.328+01:00,13917.85372991667,-1.690231323242188,1.175308227539062,-0.4399261474609375
2023-11-22T21:54:30.348+01:00,13917.87366691667,-1.762954711914062,1.0421142578125,-0.4760589599609375
2023-11-22T21:54:30.368+01:00,13917.89360491667,-1.715896606445312,1.149505615234375,-0.463714599609375
2023-11-22T21:54:30.388+01:00,13917.91354191667,-1.73150634765625,1.150466918945312,-0.3464813232421875
2023-11-22T21:54:30.408+01:00,13917.93347891667,-1.738479614257812,1.03466796875,-0.337890625
2023-11-22T21:54:30.428+01:00,13917.95341691667,-1.705917358398438,0.885528564453125,-0.34051513671875
2023-11-22T21:54:30.448+01:00,13917.97335391667,-1.563522338867188,0.826690673828125,-0.211456298828125
2023-11-22T21:54:30.467+01:00,13917.99329091667,-1.392074584960938,0.6182403564453125,-0.1692047119140625
2023-11-22T21:54:30.487+01:00,13918.01322891667,-1.225570678710938,0.65533447265625,-0.1248779296875
2023-11-22T21:54:30.507+01:00,13918.03316591667,-1.135910034179688,0.5144500732421875,-0.15673828125
2023-11-22T21:54:30.527+01:00,13918.053103,-1.037689208984375,0.4771881103515625,-0.1302337646484375
2023-11-22T21:54:30.547+01:00,13918.073041,-0.8914031982421875,0.374267578125,-0.0773162841796875
2023-11-22T21:54:30.567+01:00,13918.092978,-0.76385498046875,0.2473907470703125,-0.049102783203125
2023-11-22T21:54:30.587+01:00,13918.112915,-0.5828399658203125,0.1024169921875,-0.0915985107421875
2023-11-22T21:54:30.607+01:00,13918.132853,-0.5016632080078125,0.1475067138671875,0.000732421875
2023-11-22T21:54:30.627+01:00,13918.15279,-0.37548828125,0.0420074462890625,0.09771728515625
2023-11-22T21:54:30.647+01:00,13918.172727,-0.27911376953125,-0.01776123046875,0.1210479736328125
2023-11-22T21:54:30.667+01:00,13918.192665,-0.223876953125,-0.0499114990234375,0.14776611328125
2023-11-22T21:54:30.687+01:00,13918.212602,-0.200531005859375,-0.0875244140625,0.1777191162109375
2023-11-22T21:54:30.707+01:00,13918.232539,-0.1937408447265625,-0.114227294921875,0.1979827880859375
2023-11-22T21:54:30.727+01:00,13918.252477,-0.162353515625,-0.1087646484375,0.1997222900390625
2023-11-22T21:54:30.746+01:00,13918.272414,-0.1346588134765625,-0.1360321044921875,0.201202392578125
2023-11-22T21:54:30.766+01:00,13918.292351,-0.123138427734375,-0.11395263671875,0.226806640625
2023-11-22T21:54:30.787+01:00,13918.312289,-0.1699066162109375,-0.0762481689453125,0.2424774169921875
2023-11-22T21:54:30.806+01:00,13918.332226,-0.1944122314453125,0.0041046142578125,0.246368408203125
2023-11-22T21:54:30.826+01:00,13918.352163,-0.239593505859375,0.0700225830078125,0.2245635986328125
2023-11-22T21:54:30.846+01:00,13918.372101,-0.349639892578125,0.182586669921875,0.13214111328125
2023-11-22T21:54:30.866+01:00,13918.392038,-0.4675750732421875,0.31719970703125,-0.002197265625
2023-11-22T21:54:30.886+01:00,13918.411975,-0.6235809326171875,0.5125274658203125,-0.1463623046875
2023-11-22T21:54:30.906+01:00,13918.431913,-0.8301239013671875,0.6382598876953125,-0.40093994140625
2023-11-22T21:54:30.926+01:00,13918.45185,-1.109664916992188,0.971923828125,-0.4923858642578125
2023-11-22T21:54:30.946+01:00,13918.471787,-1.26708984375,1.226608276367188,-0.50177001953125
2023-11-22T21:54:30.966+01:00,13918.491724,-1.205886840820312,1.404647827148438,-0.6238250732421875
2023-11-22T21:54:30.986+01:00,13918.511662,-1.20635986328125,1.517074584960938,-0.8636474609375
2023-11-22T21:54:31.006+01:00,13918.531599,-1.2313232421875,1.554718017578125,-0.934722900390625
2023-11-22T21:54:31.026+01:00,13918.551536,-1.12701416015625,1.362060546875,-0.8359527587890625
2023-11-22T21:54:31.046+01:00,13918.571474,-1.059341430664062,1.128494262695312,-0.62237548828125
2023-11-22T21:54:31.066+01:00,13918.591411,-1.106613159179688,1.028549194335938,-0.5800933837890625
2023-11-22T21:54:31.086+01:00,13918.611348,-1.152206420898438,1.02099609375,-0.5511932373046875
2023-11-22T21:54:31.105+01:00,13918.631286,-1.174942016601562,0.9664154052734375,-0.4699859619140625
2023-11-22T21:54:31.125+01:00,13918.651223,-1.209701538085938,0.9357452392578125,-0.4236907958984375
2023-11-22T21:54:31.145+01:00,13918.67116,-1.238113403320312,1.036788940429688,-0.4672698974609375
2023-11-22T21:54:31.165+01:00,13918.691098,-1.26153564453125,1.090652465820312,-0.46771240234375
2023-11-22T21:54:31.185+01:00,13918.711035,-1.256942749023438,1.1412353515625,-0.5126800537109375
2023-11-22T21:54:31.205+01:00,13918.730972,-1.155120849609375,1.072311401367188,-0.413726806640625
2023-11-22T21:54:31.225+01:00,13918.75091,-0.974578857421875,0.899444580078125,-0.3613433837890625
2023-11-22T21:54:31.245+01:00,13918.770847,-0.812652587890625,0.7952880859375,-0.378509521484375
2023-11-22T21:54:31.265+01:00,13918.790784,-0.7560272216796875,0.7817840576171875,-0.4617156982421875
2023-11-22T21:54:31.285+01:00,13918.810722,-0.7556304931640625,0.7865142822265625,-0.4373321533203125
2023-11-22T21:54:31.305+01:00,13918.830659,-0.69635009765625,0.6153411865234375,-0.396392822265625
2023-11-22T21:54:31.325+01:00,13918.850596,-0.718109130859375,0.64154052734375,-0.4500274658203125
2023-11-22T21:54:31.345+01:00,13918.870534,-0.871795654296875,0.7896270751953125,-0.56378173828125
2023-11-22T21:54:31.365+01:00,13918.890471,-0.991729736328125,0.7989501953125,-0.54144287109375
2023-11-22T21:54:31.385+01:00,13918.910408,-0.973724365234375,0.6075897216796875,-0.4402923583984375
2023-11-22T21:54:31.405+01:00,13918.930346,-0.968231201171875,0.4889068603515625,-0.4094390869140625
2023-11-22T21:54:31.425+01:00,13918.950283,-1.049728393554688,0.457733154296875,-0.4618377685546875
2023-11-22T21:54:31.444+01:00,13918.97022,-1.229873657226562,0.37725830078125,-0.479339599609375
2023-11-22T21:54:31.464+01:00,13918.990158,-1.340911865234375,0.1534576416015625,-0.4124908447265625
2023-11-22T21:54:31.484+01:00,13919.010095,-1.307891845703125,-0.010772705078125,-0.3226470947265625
2023-11-22T21:54:31.504+01:00,13919.030032,-1.237808227539062,-0.0111541748046875,-0.2214813232421875
2023-11-22T21:54:31.524+01:00,13919.04997129167,-1.088043212890625,-0.0445098876953125,-0.2340850830078125
2023-11-22T21:54:31.544+01:00,13919.06990829167,-0.966064453125,-0.042388916015625,-0.25341796875
2023-11-22T21:54:31.564+01:00,13919.08984529167,-0.88275146484375,-0.0339508056640625,-0.2379302978515625
2023-11-22T21:54:31.584+01:00,13919.10978329167,-0.8286590576171875,0.0229949951171875,-0.260528564453125
2023-11-22T21:54:31.604+01:00,13919.12972029167,-0.810760498046875,0.1116180419921875,-0.287872314453125
2023-11-22T21:54:31.624+01:00,13919.14965729167,-0.7933197021484375,0.132354736328125,-0.2684478759765625
2023-11-22T21:54:31.644+01:00,13919.16959529167,-0.77294921875,0.138702392578125,-0.2557830810546875
2023-11-22T21:54:31.664+01:00,13919.18953229167,-0.740234375,0.187713623046875,-0.3006439208984375
2023-11-22T21:54:31.684+01:00,13919.20946929167,-0.660980224609375,0.238372802734375,-0.305908203125
2023-11-22T21:54:31.704+01:00,13919.22940729167,-0.6079254150390625,0.20855712890625,-0.317840576171875
2023-11-22T21:54:31.723+01:00,13919.24934429167,-0.5078277587890625,0.19403076171875,-0.3662567138671875
2023-11-22T21:54:31.743+01:00,13919.26928129167,-0.418609619140625,0.24951171875,-0.4464569091796875
2023-11-22T21:54:31.763+01:00,13919.28921929167,-0.4094085693359375,0.28741455078125,-0.5119476318359375
2023-11-22T21:54:31.783+01:00,13919.30915629167,-0.41064453125,0.2914276123046875,-0.5302886962890625
2023-11-22T21:54:31.803+01:00,13919.32909329167,-0.378509521484375,0.272796630859375,-0.5809326171875
2023-11-22T21:54:31.823+01:00,13919.34903129167,-0.3874053955078125,0.282806396484375,-0.5561981201171875
2023-11-22T21:54:31.843+01:00,13919.36896829167,-0.412841796875,0.3936004638671875,-0.56744384765625
2023-11-22T21:54:31.863+01:00,13919.38890529167,-0.4405517578125,0.4908599853515625,-0.5907440185546875
2023-11-22T21:54:31.883+01:00,13919.40884329167,-0.4383392333984375,0.3786773681640625,-0.53338623046875
2023-11-22T21:54:31.903+01:00,13919.42878029167,-0.41357421875,0.3311309814453125,-0.4005584716796875
2023-11-22T21:54:31.923+01:00,13919.44871729167,-0.4179840087890625,0.31488037109375,-0.3394012451171875
2023-11-22T21:54:31.943+01:00,13919.46865529167,-0.394012451171875,0.3319244384765625,-0.3156280517578125
2023-11-22T21:54:31.963+01:00,13919.48859229167,-0.3682708740234375,0.2812347412109375,-0.290313720703125
2023-11-22T21:54:31.983+01:00,13919.50852929167,-0.47882080078125,0.15625,-0.1780548095703125
2023-11-22T21:54:32.003+01:00,13919.52846729167,-0.579986572265625,0.1356048583984375,-0.198699951171875
2023-11-22T21:54:32.023+01:00,13919.54840429167,-0.725799560546875,0.1266937255859375,-0.193267822265625
2023-11-22T21:54:32.043+01:00,13919.56834129167,-0.868621826171875,0.1031646728515625,-0.261383056640625
2023-11-22T21:54:32.063+01:00,13919.58827929167,-1.1123046875,0.0768890380859375,-0.2985076904296875
2023-11-22T21:54:32.082+01:00,13919.60821629167,-1.399246215820312,-0.0545196533203125,-0.296539306640625
2023-11-22T21:54:32.102+01:00,13919.62815329167,-1.682266235351562,-0.130401611328125,-0.34295654296875
2023-11-22T21:54:32.122+01:00,13919.64809129167,-1.67779541015625,-0.1421966552734375,-0.225311279296875
2023-11-22T21:54:32.142+01:00,13919.66802829167,-1.693572998046875,-0.3441925048828125,-0.1348876953125
2023-11-22T21:54:32.162+01:00,13919.68796529167,-1.697616577148438,-0.6354522705078125,-0.05621337890625
2023-11-22T21:54:32.182+01:00,13919.70790329167,-1.585525512695312,-0.487213134765625,-0.107086181640625
2023-11-22T21:54:32.202+01:00,13919.72784029167,-1.540206909179688,-0.4565277099609375,-0.03973388671875
2023-11-22T21:54:32.222+01:00,13919.74777729167,-1.564895629882812,-0.644073486328125,-0.0001068115234375
2023-11-22T21:54:32.242+01:00,13919.76771529167,-1.436691284179688,-0.646453857421875,-0.0277099609375
2023-11-22T21:54:32.262+01:00,13919.78765229167,-1.305709838867188,-0.4645538330078125,-0.063018798828125
2023-11-22T21:54:32.282+01:00,13919.80758929167,-1.27880859375,-0.3414459228515625,-0.0341949462890625
2023-11-22T21:54:32.302+01:00,13919.82752729167,-1.301193237304688,-0.22161865234375,-0.0308990478515625
2023-11-22T21:54:32.322+01:00,13919.84746429167,-1.226104736328125,0.141357421875,-0.0352783203125
2023-11-22T21:54:32.342+01:00,13919.86740129167,-1.186172485351562,0.352935791015625,0.0330352783203125
2023-11-22T21:54:32.362+01:00,13919.88733929167,-1.235626220703125,0.214569091796875,-0.106719970703125
2023-11-22T21:54:32.382+01:00,13919.90727629167,-1.090469360351562,0.753662109375,0.0232696533203125
2023-11-22T21:54:32.401+01:00,13919.92721329167,-1.01300048828125,0.8296661376953125,-0.0632171630859375
2023-11-22T21:54:32.421+01:00,13919.94715129167,-1.044967651367188,0.96441650390625,-0.2175445556640625
2023-11-22T21:54:32.441+01:00,13919.96708829167,-1.030853271484375,0.5850830078125,-0.1799163818359375
2023-11-22T21:54:32.461+01:00,13919.98702529167,-1.008224487304688,0.7794952392578125,-0.1873626708984375
2023-11-22T21:54:32.481+01:00,13920.00696329167,-1.054641723632812,1.008163452148438,-0.0712127685546875
2023-11-22T21:54:32.501+01:00,13920.02690029167,-1.135971069335938,1.087417602539062,-0.1810150146484375
2023-11-22T21:54:32.521+01:00,13920.04683729167,-1.146240234375,0.8034515380859375,-0.1872100830078125
2023-11-22T21:54:32.541+01:00,13920.066775,-1.078231811523438,0.9462432861328125,-0.1385345458984375
2023-11-22T21:54:32.561+01:00,13920.086712,-1.244171142578125,1.434417724609375,-0.1758270263671875
2023-11-22T21:54:32.581+01:00,13920.106649,-1.400222778320312,1.954803466796875,-0.240447998046875
2023-11-22T21:54:32.601+01:00,13920.126587,-1.40069580078125,1.5347900390625,-0.2210540771484375
2023-11-22T21:54:32.621+01:00,13920.146524,-1.50689697265625,1.57879638671875,-0.2869873046875
2023-11-22T21:54:32.641+01:00,13920.166461,-1.61212158203125,1.671920776367188,-0.405609130859375
2023-11-22T21:54:32.661+01:00,13920.186399,-1.698745727539062,1.499282836914062,-0.3780517578125
2023-11-22T21:54:32.681+01:00,13920.206336,-1.706634521484375,1.47100830078125,-0.4052276611328125
2023-11-22T21:54:32.701+01:00,13920.226273,-1.752197265625,1.395706176757812,-0.4495391845703125
2023-11-22T21:54:32.720+01:00,13920.246211,-1.73565673828125,1.227706909179688,-0.41949462890625
2023-11-22T21:54:32.740+01:00,13920.266148,-1.627899169921875,1.137954711914062,-0.3671417236328125
2023-11-22T21:54:32.760+01:00,13920.286085,-1.515350341796875,0.98675537109375,-0.3753662109375
2023-11-22T21:54:32.780+01:00,13920.306023,-1.437149047851562,0.88958740234375,-0.3653564453125
2023-11-22T21:54:32.800+01:00,13920.32596,-1.389007568359375,0.8069610595703125,-0.404876708984375
2023-11-22T21:54:32.820+01:00,13920.345897,-1.278579711914062,0.85888671875,-0.4380645751953125
2023-11-22T21:54:32.840+01:00,13920.365835,-1.200759887695312,0.7853546142578125,-0.447967529296875
2023-11-22T21:54:32.860+01:00,13920.385772,-1.142623901367188,0.743927001953125,-0.3891754150390625
2023-11-22T21:54:32.880+01:00,13920.405709,-1.024795532226562,0.675201416015625,-0.3504638671875
2023-11-22T21:54:32.900+01:00,13920.425647,-0.9083404541015625,0.5606842041015625,-0.3320770263671875
2023-11-22T21:54:32.920+01:00,13920.445584,-0.831085205078125,0.597137451171875,-0.260467529296875
2023-11-22T21:54:32.940+01:00,13920.465521,-0.7378082275390625,0.5746307373046875,-0.17462158203125
2023-11-22T21:54:32.960+01:00,13920.485459,-0.697418212890625,0.5269012451171875,-0.051544189453125
2023-11-22T21:54:32.980+01:00,13920.505396,-0.6377716064453125,0.46075439453125,0.0304718017578125
2023-11-22T21:54:33.000+01:00,13920.525333,-0.534698486328125,0.4410858154296875,0.122039794921875
2023-11-22T21:54:33.019+01:00,13920.545271,-0.502685546875,0.4384002685546875,0.14404296875
2023-11-22T21:54:33.039+01:00,13920.565208,-0.4635009765625,0.391265869140625,0.155792236328125
2023-11-22T21:54:33.059+01:00,13920.585145,-0.425445556640625,0.4305572509765625,0.1303863525390625
2023-11-22T21:54:33.079+01:00,13920.605083,-0.385498046875,0.5180206298828125,0.11968994140625
2023-11-22T21:54:33.099+01:00,13920.62502,-0.3717041015625,0.5118560791015625,0.13055419921875
2023-11-22T21:54:33.119+01:00,13920.644957,-0.3891143798828125,0.4763031005859375,0.1127471923828125
2023-11-22T21:54:33.139+01:00,13920.664895,-0.4245452880859375,0.466796875,0.0749053955078125
2023-11-22T21:54:33.159+01:00,13920.684832,-0.479583740234375,0.5020904541015625,-0.002471923828125
2023-11-22T21:54:33.179+01:00,13920.704769,-0.512481689453125,0.5381622314453125,-0.0463714599609375
2023-11-22T21:54:33.199+01:00,13920.724707,-0.5002593994140625,0.4945220947265625,-0.0605926513671875
2023-11-22T21:54:33.219+01:00,13920.744644,-0.5189971923828125,0.5172271728515625,-0.1310882568359375
2023-11-22T21:54:33.239+01:00,13920.764581,-0.530120849609375,0.4911041259765625,-0.30810546875
2023-11-22T21:54:33.259+01:00,13920.784519,-0.5198974609375,0.4979095458984375,-0.3917388916015625
2023-11-22T21:54:33.279+01:00,13920.804456,-0.5407562255859375,0.41943359375,-0.2989349365234375
2023-11-22T21:54:33.298+01:00,13920.824393,-0.5816192626953125,0.38629150390625,-0.2495269775390625
2023-11-22T21:54:33.318+01:00,13920.844331,-0.6664276123046875,0.4652557373046875,-0.3112945556640625
2023-11-22T21:54:33.339+01:00,13920.864268,-0.74365234375,0.5429229736328125,-0.4203033447265625
2023-11-22T21:54:33.358+01:00,13920.884205,-0.781036376953125,0.610565185546875,-0.484161376953125
2023-11-22T21:54:33.378+01:00,13920.904143,-0.802032470703125,0.6605224609375,-0.42864990234375
2023-11-22T21:54:33.398+01:00,13920.92408,-0.8304901123046875,0.6335601806640625,-0.3936920166015625
2023-11-22T21:54:33.418+01:00,13920.944017,-0.8491058349609375,0.63385009765625,-0.43359375
2023-11-22T21:54:33.438+01:00,13920.963955,-0.862823486328125,0.676116943359375,-0.4140472412109375
2023-11-22T21:54:33.458+01:00,13920.983892,-0.872528076171875,0.5905609130859375,-0.3421478271484375
2023-11-22T21:54:33.478+01:00,13921.003829,-0.9012908935546875,0.5598602294921875,-0.2567596435546875
2023-11-22T21:54:33.498+01:00,13921.023767,-0.932159423828125,0.6031494140625,-0.23382568359375
2023-11-22T21:54:33.518+01:00,13921.043704,-1.002883911132812,0.6590728759765625,-0.238800048828125
2023-11-22T21:54:33.538+01:00,13921.06364091667,-1.0958251953125,0.710723876953125,-0.2711334228515625
2023-11-22T21:54:33.558+01:00,13921.08357891667,-1.213699340820312,0.7458343505859375,-0.2751922607421875
2023-11-22T21:54:33.578+01:00,13921.10351591667,-1.31268310546875,0.8009796142578125,-0.2792816162109375
2023-11-22T21:54:33.598+01:00,13921.12345291667,-1.403289794921875,0.92047119140625,-0.1817779541015625
2023-11-22T21:54:33.618+01:00,13921.14339091667,-1.366683959960938,0.8541107177734375,-0.086395263671875
2023-11-22T21:54:33.638+01:00,13921.16332791667,-1.398025512695312,0.6367950439453125,-0.1124267578125
2023-11-22T21:54:33.657+01:00,13921.18326491667,-1.418869018554688,0.754119873046875,-0.2289886474609375
2023-11-22T21:54:33.677+01:00,13921.20320291667,-1.361923217773438,0.4416656494140625,-0.2694244384765625
2023-11-22T21:54:33.697+01:00,13921.22313991667,-1.303115844726562,-0.1209869384765625,-0.2068939208984375
2023-11-22T21:54:33.717+01:00,13921.24307691667,-1.219161987304688,-0.0780181884765625,-0.160919189453125
2023-11-22T21:54:33.737+01:00,13921.26301491667,-1.2066650390625,-0.0170745849609375,-0.1973724365234375
2023-11-22T21:54:33.757+01:00,13921.28295191667,-1.201416015625,0.10809326171875,-0.206390380859375
2023-11-22T21:54:33.777+01:00,13921.30288891667,-1.107925415039062,0.314361572265625,-0.18988037109375
2023-11-22T21:54:33.797+01:00,13921.32282691667,-0.911224365234375,0.416595458984375,-0.1641082763671875
2023-11-22T21:54:33.817+01:00,13921.34276391667,-0.80462646484375,0.4834747314453125,-0.1539764404296875
2023-11-22T21:54:33.837+01:00,13921.36270091667,-0.6998748779296875,0.481781005859375,-0.1734619140625
2023-11-22T21:54:33.857+01:00,13921.38263891667,-0.6889190673828125,0.457794189453125,-0.221710205078125
2023-11-22T21:54:33.877+01:00,13921.40257591667,-0.7212066650390625,0.38983154296875,-0.33978271484375
2023-11-22T21:54:33.897+01:00,13921.42251291667,-0.7066802978515625,0.2804412841796875,-0.342742919921875
2023-11-22T21:54:33.917+01:00,13921.44245091667,-0.7017822265625,0.239532470703125,-0.2744598388671875
2023-11-22T21:54:33.937+01:00,13921.46238791667,-0.7160491943359375,0.3451690673828125,-0.2798309326171875
2023-11-22T21:54:33.957+01:00,13921.48232491667,-0.6821746826171875,0.42425537109375,-0.2820587158203125
2023-11-22T21:54:33.976+01:00,13921.50226291667,-0.7147674560546875,0.3806915283203125,-0.24554443359375
2023-11-22T21:54:33.996+01:00,13921.52219991667,-0.781280517578125,0.390899658203125,-0.196746826171875
2023-11-22T21:54:34.016+01:00,13921.54213691667,-0.826385498046875,0.3970794677734375,-0.1281585693359375
2023-11-22T21:54:34.036+01:00,13921.56207491667,-0.8933258056640625,0.4277496337890625,-0.0432586669921875
2023-11-22T21:54:34.056+01:00,13921.58201191667,-0.9842987060546875,0.4692840576171875,-0.033294677734375
2023-11-22T21:54:34.076+01:00,13921.60194891667,-0.9911651611328125,0.6147308349609375,-0.0687103271484375
2023-11-22T21:54:34.096+01:00,13921.62188691667,-0.955963134765625,0.691650390625,-0.060516357421875
2023-11-22T21:54:34.116+01:00,13921.64182391667,-0.9234161376953125,0.7488861083984375,-0.09625244140625
2023-11-22T21:54:34.136+01:00,13921.66176091667,-0.9198760986328125,0.8031768798828125,-0.1887664794921875
2023-11-22T21:54:34.156+01:00,13921.68169891667,-0.83154296875,0.8776092529296875,-0.2266998291015625
2023-11-22T21:54:34.176+01:00,13921.70163591667,-0.7696075439453125,0.8067779541015625,-0.334869384765625
2023-11-22T21:54:34.196+01:00,13921.72157391667,-0.778961181640625,0.771026611328125,-0.403594970703125
2023-11-22T21:54:34.216+01:00,13921.74151091667,-0.77923583984375,0.6680450439453125,-0.4606475830078125
2023-11-22T21:54:34.236+01:00,13921.76144791667,-0.7729339599609375,0.5406494140625,-0.4368896484375
2023-11-22T21:54:34.256+01:00,13921.78138491667,-0.7749176025390625,0.3160858154296875,-0.3204345703125
2023-11-22T21:54:34.276+01:00,13921.80132291667,-0.7594146728515625,0.2134552001953125,-0.329132080078125
2023-11-22T21:54:34.295+01:00,13921.82125991667,-0.8524627685546875,0.201324462890625,-0.4962005615234375
2023-11-22T21:54:34.315+01:00,13921.84119791667,-0.7794342041015625,0.5815582275390625,-0.5708160400390625
2023-11-22T21:54:34.335+01:00,13921.86113491667,-0.9385223388671875,0.2072296142578125,-0.4548797607421875
2023-11-22T21:54:34.355+01:00,13921.88107191667,-1.017532348632812,-0.28643798828125,-0.380767822265625
2023-11-22T21:54:34.375+01:00,13921.90100991667,-1.125930786132812,-0.4535064697265625,-0.043975830078125
2023-11-22T21:54:34.395+01:00,13921.92094691667,-1.42791748046875,-0.6141357421875,-0.144073486328125
2023-11-22T21:54:34.415+01:00,13921.94088391667,-1.156661987304688,-0.1473846435546875,-0.3579254150390625
2023-11-22T21:54:34.435+01:00,13921.96082191667,-1.53289794921875,-0.00775146484375,-0.3567962646484375
2023-11-22T21:54:34.455+01:00,13921.98075891667,-1.381881713867188,0.202178955078125,-0.4198455810546875
2023-11-22T21:54:34.475+01:00,13922.00069591667,-1.275482177734375,0.149200439453125,-0.5295257568359375
2023-11-22T21:54:34.495+01:00,13922.02063391667,-1.164398193359375,0.0553131103515625,-0.55340576171875
2023-11-22T21:54:34.515+01:00,13922.04057091667,-1.124359130859375,0.1624298095703125,-0.5032806396484375
2023-11-22T21:54:34.535+01:00,13922.060507375,-1.212203979492188,0.186309814453125,-0.479583740234375
2023-11-22T21:54:34.555+01:00,13922.080445375,-1.265548706054688,0.1920318603515625,-0.5758514404296875
2023-11-22T21:54:34.575+01:00,13922.100382375,-1.236221313476562,0.2252044677734375,-0.571929931640625
2023-11-22T21:54:34.595+01:00,13922.120319375,-1.110427856445312,0.1440582275390625,-0.5446624755859375
2023-11-22T21:54:34.614+01:00,13922.140257375,-1.103057861328125,0.1510162353515625,-0.3932342529296875
2023-11-22T21:54:34.634+01:00,13922.160194375,-0.9881134033203125,0.1964263916015625,-0.2770233154296875
2023-11-22T21:54:34.654+01:00,13922.180131375,-0.852996826171875,0.2350006103515625,-0.38763427734375
2023-11-22T21:54:34.674+01:00,13922.200069375,-0.7703857421875,0.2442779541015625,-0.5028533935546875
2023-11-22T21:54:34.694+01:00,13922.220006375,-0.7116546630859375,0.2564544677734375,-0.572906494140625
2023-11-22T21:54:34.714+01:00,13922.239943375,-0.6302490234375,0.411224365234375,-0.541656494140625
2023-11-22T21:54:34.734+01:00,13922.259881375,-0.5211029052734375,0.3281097412109375,-0.3689117431640625
2023-11-22T21:54:34.754+01:00,13922.279818375,-0.459991455078125,0.058258056640625,-0.2685089111328125
2023-11-22T21:54:34.774+01:00,13922.299755375,-0.4509735107421875,0.0831451416015625,-0.2615509033203125
2023-11-22T21:54:34.794+01:00,13922.319693375,-0.4954071044921875,0.1986083984375,-0.3363494873046875
2023-11-22T21:54:34.814+01:00,13922.339630375,-0.5524139404296875,0.239501953125,-0.35003662109375
2023-11-22T21:54:34.834+01:00,13922.359567375,-0.6304473876953125,0.2958221435546875,-0.3876800537109375
2023-11-22T21:54:34.854+01:00,13922.379505375,-0.73651123046875,0.5242767333984375,-0.53021240234375
2023-11-22T21:54:34.874+01:00,13922.399442375,-0.75738525390625,0.571014404296875,-0.568603515625
2023-11-22T21:54:34.894+01:00,13922.419379375,-0.7506103515625,0.4299774169921875,-0.5564117431640625
2023-11-22T21:54:34.914+01:00,13922.439317375,-0.7224578857421875,0.465057373046875,-0.549285888671875
2023-11-22T21:54:34.933+01:00,13922.459254375,-0.726898193359375,0.5794525146484375,-0.6246795654296875
2023-11-22T21:54:34.953+01:00,13922.479191375,-0.756866455078125,0.5596923828125,-0.6600341796875
2023-11-22T21:54:34.973+01:00,13922.499129375,-0.8412017822265625,0.3397216796875,-0.591156005859375
2023-11-22T21:54:34.993+01:00,13922.519066375,-0.8148956298828125,0.4539642333984375,-0.5809478759765625
2023-11-22T21:54:35.013+01:00,13922.539003375,-0.857696533203125,0.418731689453125,-0.5680694580078125
2023-11-22T21:54:35.033+01:00,13922.558941375,-0.8482513427734375,0.3565826416015625,-0.5963134765625
2023-11-22T21:54:35.053+01:00,13922.578878375,-0.829925537109375,0.5658111572265625,-0.7901763916015625
2023-11-22T21:54:35.073+01:00,13922.598815375,-0.9014129638671875,0.2931060791015625,-0.7522125244140625
2023-11-22T21:54:35.093+01:00,13922.618753375,-0.766845703125,0.435211181640625,-0.634368896484375
2023-11-22T21:54:35.113+01:00,13922.638690375,-0.7323455810546875,0.60455322265625,-0.6704864501953125
2023-11-22T21:54:35.133+01:00,13922.658627375,-0.7189178466796875,0.5028228759765625,-0.71575927734375
2023-11-22T21:54:35.153+01:00,13922.678565375,-0.698089599609375,0.507049560546875,-0.7365875244140625
2023-11-22T21:54:35.173+01:00,13922.698502375,-0.6623382568359375,0.6668853759765625,-0.606201171875
2023-11-22T21:54:35.193+01:00,13922.718439375,-0.6324310302734375,0.7546539306640625,-0.3669586181640625
2023-11-22T21:54:35.213+01:00,13922.738377375,-0.6815032958984375,0.4346466064453125,-0.369537353515625
2023-11-22T21:54:35.233+01:00,13922.758314375,-0.6976165771484375,0.442535400390625,-0.463287353515625
2023-11-22T21:54:35.252+01:00,13922.778251375,-0.7193756103515625,0.469635009765625,-0.566436767578125
2023-11-22T21:54:35.272+01:00,13922.798189375,-0.6999053955078125,0.49517822265625,-0.6039581298828125
2023-11-22T21:54:35.292+01:00,13922.818126375,-0.6860809326171875,0.4810638427734375,-0.5956268310546875
2023-11-22T21:54:35.312+01:00,13922.838063375,-0.6143035888671875,0.513427734375,-0.518768310546875
2023-11-22T21:54:35.332+01:00,13922.858001375,-0.6100616455078125,0.3956451416015625,-0.43402099609375
2023-11-22T21:54:35.352+01:00,13922.877938375,-0.5662384033203125,0.285369873046875,-0.318511962890625
2023-11-22T21:54:35.372+01:00,13922.897875375,-0.598968505859375,0.2354583740234375,-0.33837890625
2023-11-22T21:54:35.392+01:00,13922.917813375,-0.696502685546875,0.356719970703125,-0.3151397705078125
2023-11-22T21:54:35.412+01:00,13922.937750375,-0.7975006103515625,0.3294830322265625,-0.3838653564453125
2023-11-22T21:54:35.432+01:00,13922.957688375,-0.809906005859375,0.241119384765625,-0.394195556640625
2023-11-22T21:54:35.452+01:00,13922.977625375,-0.7841644287109375,0.305328369140625,-0.4023590087890625
2023-11-22T21:54:35.472+01:00,13922.997562375,-0.806488037109375,0.3743438720703125,-0.381927490234375
2023-11-22T21:54:35.492+01:00,13923.017500375,-0.8150787353515625,0.2391204833984375,-0.3089752197265625
2023-11-22T21:54:35.512+01:00,13923.037437375,-0.873321533203125,0.2087249755859375,-0.374664306640625
2023-11-22T21:54:35.532+01:00,13923.05737454167,-0.9035186767578125,0.2496795654296875,-0.4416046142578125
2023-11-22T21:54:35.552+01:00,13923.07731254167,-0.88232421875,0.186065673828125,-0.360595703125
2023-11-22T21:54:35.571+01:00,13923.09724954167,-0.9174652099609375,0.09521484375,-0.34124755859375
2023-11-22T21:54:35.591+01:00,13923.11718654167,-0.929107666015625,0.0488433837890625,-0.3499298095703125
2023-11-22T21:54:35.611+01:00,13923.13712454167,-1.001571655273438,0.040863037109375,-0.504058837890625
2023-11-22T21:54:35.631+01:00,13923.15706154167,-0.961395263671875,0.00616455078125,-0.369476318359375
2023-11-22T21:54:35.651+01:00,13923.17699854167,-1.03851318359375,-0.1104583740234375,-0.397552490234375
2023-11-22T21:54:35.671+01:00,13923.19693654167,-1.107681274414062,-0.0586700439453125,-0.4578094482421875
2023-11-22T21:54:35.691+01:00,13923.21687354167,-1.103500366210938,-0.093170166015625,-0.415740966796875
2023-11-22T21:54:35.711+01:00,13923.23681054167,-1.098114013671875,-0.120025634765625,-0.3687286376953125
2023-11-22T21:54:35.731+01:00,13923.25674854167,-1.096328735351562,-0.1265106201171875,-0.387115478515625
2023-11-22T21:54:35.751+01:00,13923.27668554167,-1.083816528320312,-0.1725921630859375,-0.333160400390625
2023-11-22T21:54:35.771+01:00,13923.29662254167,-1.049774169921875,-0.1585845947265625,-0.2974700927734375
2023-11-22T21:54:35.791+01:00,13923.31656054167,-1.024246215820312,-0.2032470703125,-0.245819091796875
2023-11-22T21:54:35.811+01:00,13923.33649754167,-1.04632568359375,-0.121246337890625,-0.2631072998046875
2023-11-22T21:54:35.831+01:00,13923.35643454167,-0.97796630859375,-0.0626373291015625,-0.287628173828125
2023-11-22T21:54:35.850+01:00,13923.37637254167,-0.9720001220703125,-0.1191558837890625,-0.203582763671875
2023-11-22T21:54:35.870+01:00,13923.39630954167,-0.9394989013671875,-0.096221923828125,-0.2125244140625
2023-11-22T21:54:35.891+01:00,13923.41624654167,-0.937530517578125,-0.0337371826171875,-0.2189178466796875
2023-11-22T21:54:35.910+01:00,13923.43618454167,-0.959228515625,-0.063232421875,-0.20452880859375
2023-11-22T21:54:35.930+01:00,13923.45612154167,-0.9306182861328125,-0.139434814453125,-0.1644439697265625
2023-11-22T21:54:35.950+01:00,13923.47605854167,-0.9309234619140625,-0.095794677734375,-0.21893310546875
2023-11-22T21:54:35.970+01:00,13923.49599654167,-0.9472808837890625,-0.0353851318359375,-0.253448486328125
2023-11-22T21:54:35.990+01:00,13923.51593354167,-0.9729461669921875,-0.074188232421875,-0.243804931640625
2023-11-22T21:54:36.010+01:00,13923.53587054167,-0.97625732421875,-0.0660247802734375,-0.2457733154296875
2023-11-22T21:54:36.030+01:00,13923.55580854167,-1.006057739257812,-0.038116455078125,-0.311492919921875
2023-11-22T21:54:36.050+01:00,13923.57574554167,-0.997955322265625,-0.0819549560546875,-0.32550048828125
2023-11-22T21:54:36.070+01:00,13923.59568254167,-0.9673309326171875,-0.065460205078125,-0.2845001220703125
2023-11-22T21:54:36.090+01:00,13923.61562054167,-0.9874725341796875,-0.0510101318359375,-0.3268890380859375
2023-11-22T21:54:36.110+01:00,13923.63555754167,-0.97845458984375,-0.02886962890625,-0.366943359375
2023-11-22T21:54:36.130+01:00,13923.65549454167,-0.9930267333984375,-0.0429840087890625,-0.387054443359375
2023-11-22T21:54:36.150+01:00,13923.67543254167,-1.001800537109375,-0.005584716796875,-0.4098663330078125
2023-11-22T21:54:36.170+01:00,13923.69536954167,-1.03955078125,-0.0360260009765625,-0.4709625244140625
2023-11-22T21:54:36.189+01:00,13923.71530654167,-1.094970703125,-0.1794281005859375,-0.5553131103515625
2023-11-22T21:54:36.209+01:00,13923.73524454167,-1.114974975585938,-0.248809814453125,-0.6268463134765625
2023-11-22T21:54:36.229+01:00,13923.75518154167,-1.20623779296875,-0.38421630859375,-0.644195556640625
2023-11-22T21:54:36.249+01:00,13923.77511854167,-1.29571533203125,-0.6425933837890625,-0.7725830078125
2023-11-22T21:54:36.269+01:00,13923.79505654167,-1.48724365234375,-0.9191741943359375,-0.7773590087890625
2023-11-22T21:54:36.289+01:00,13923.81499354167,-1.639617919921875,-1.173995971679688,-0.6185760498046875
2023-11-22T21:54:36.309+01:00,13923.83493054167,-1.49560546875,-1.594070434570312,-0.1229248046875
2023-11-22T21:54:36.329+01:00,13923.85486854167,-1.44586181640625,-1.875534057617188,0.06646728515625
2023-11-22T21:54:36.349+01:00,13923.87480554167,-1.606658935546875,-1.493942260742188,0.23748779296875
2023-11-22T21:54:36.369+01:00,13923.89474254167,-1.532211303710938,-0.5984649658203125,-0.0866241455078125
2023-11-22T21:54:36.389+01:00,13923.91468054167,-1.576934814453125,-0.385498046875,-0.4898834228515625
2023-11-22T21:54:36.409+01:00,13923.93461754167,-1.478256225585938,1.79620361328125,0.6053924560546875
2023-11-22T21:54:36.429+01:00,13923.95455454167,-1.0611572265625,0.050994873046875,0.099334716796875
2023-11-22T21:54:36.449+01:00,13923.97449254167,-1.573593139648438,-0.034576416015625,-0.246612548828125
2023-11-22T21:54:36.469+01:00,13923.99442954167,-1.23065185546875,-0.066986083984375,0.18438720703125
2023-11-22T21:54:36.489+01:00,13924.01436654167,-1.016921997070312,-0.4893341064453125,0.4660797119140625
2023-11-22T21:54:36.509+01:00,13924.03430454167,-0.93072509765625,-0.1332244873046875,0.6403961181640625
2023-11-22T21:54:36.528+01:00,13924.054242,-0.81146240234375,0.1405792236328125,0.4694366455078125
2023-11-22T21:54:36.548+01:00,13924.074179,-0.67071533203125,0.1667327880859375,0.3433837890625
2023-11-22T21:54:36.568+01:00,13924.094117,-0.586395263671875,0.297943115234375,0.35186767578125
2023-11-22T21:54:36.588+01:00,13924.114054,-0.561859130859375,0.4332275390625,0.27685546875
2023-11-22T21:54:36.608+01:00,13924.133991,-0.5417022705078125,0.4983367919921875,0.15850830078125
2023-11-22T21:54:36.628+01:00,13924.153929,-0.55413818359375,0.49847412109375,0.0856781005859375
2023-11-22T21:54:36.648+01:00,13924.173866,-0.5921783447265625,0.323272705078125,0.0172119140625
2023-11-22T21:54:36.668+01:00,13924.193804,-0.6608428955078125,0.34136962890625,-0.1324462890625
2023-11-22T21:54:36.688+01:00,13924.213741,-0.7997283935546875,0.3558502197265625,-0.3514404296875
2023-11-22T21:54:36.708+01:00,13924.233678,-0.8328704833984375,0.403564453125,-0.548675537109375
2023-11-22T21:54:36.728+01:00,13924.253616,-0.854827880859375,0.5387115478515625,-0.5321197509765625
2023-11-22T21:54:36.748+01:00,13924.273553,-0.7855377197265625,0.4233856201171875,-0.63592529296875
2023-11-22T21:54:36.768+01:00,13924.29349,-0.72454833984375,0.46771240234375,-0.6228179931640625
2023-11-22T21:54:36.788+01:00,13924.313428,-0.756500244140625,0.3846588134765625,-0.73089599609375
2023-11-22T21:54:36.808+01:00,13924.333365,-0.7470855712890625,0.303741455078125,-0.7832183837890625
2023-11-22T21:54:36.828+01:00,13924.353302,-0.787353515625,0.283203125,-0.7310791015625
2023-11-22T21:54:36.847+01:00,13924.37324,-0.8475799560546875,0.1143798828125,-0.817413330078125
2023-11-22T21:54:36.867+01:00,13924.393177,-0.8134613037109375,0.207427978515625,-0.786102294921875
2023-11-22T21:54:36.887+01:00,13924.413114,-0.8731842041015625,0.1831817626953125,-0.789794921875
2023-11-22T21:54:36.907+01:00,13924.433052,-0.8382720947265625,0.0865631103515625,-0.7291717529296875
2023-11-22T21:54:36.927+01:00,13924.452989,-0.850921630859375,0.0247039794921875,-0.59844970703125
2023-11-22T21:54:36.947+01:00,13924.472926,-0.870361328125,0.049713134765625,-0.5466461181640625
2023-11-22T21:54:36.967+01:00,13924.492864,-0.953643798828125,0.081817626953125,-0.4735260009765625
2023-11-22T21:54:36.987+01:00,13924.512801,-1.118820190429688,0.036895751953125,-0.5521697998046875
2023-11-22T21:54:37.007+01:00,13924.532738,-1.312255859375,0.17291259765625,-0.5829620361328125
2023-11-22T21:54:37.027+01:00,13924.552676,-1.42254638671875,0.3088531494140625,-0.7080230712890625
2023-11-22T21:54:37.047+01:00,13924.572613,-1.46661376953125,0.449951171875,-0.834228515625
2023-11-22T21:54:37.067+01:00,13924.59255,-1.416351318359375,0.50506591796875,-0.8801727294921875
2023-11-22T21:54:37.087+01:00,13924.612488,-1.268569946289062,0.499481201171875,-0.88421630859375
2023-11-22T21:54:37.107+01:00,13924.632425,-1.069580078125,0.49212646484375,-0.878448486328125
2023-11-22T21:54:37.127+01:00,13924.652362,-0.86920166015625,0.5243682861328125,-0.8727264404296875
2023-11-22T21:54:37.147+01:00,13924.6723,-0.6513824462890625,0.530670166015625,-0.8454742431640625
2023-11-22T21:54:37.166+01:00,13924.692237,-0.5240631103515625,0.49420166015625,-0.855316162109375
2023-11-22T21:54:37.186+01:00,13924.712174,-0.4784393310546875,0.572021484375,-0.8250885009765625
2023-11-22T21:54:37.206+01:00,13924.732112,-0.5650787353515625,0.639617919921875,-0.874847412109375
2023-11-22T21:54:37.226+01:00,13924.752049,-0.656951904296875,0.66510009765625,-0.933074951171875
2023-11-22T21:54:37.246+01:00,13924.771986,-0.764373779296875,0.7387237548828125,-0.997955322265625
2023-11-22T21:54:37.266+01:00,13924.791924,-0.8094482421875,0.811767578125,-0.916595458984375
2023-11-22T21:54:37.286+01:00,13924.811861,-0.80035400390625,0.7515106201171875,-0.7523956298828125
2023-11-22T21:54:37.306+01:00,13924.831798,-0.7718963623046875,0.79827880859375,-0.6981658935546875
2023-11-22T21:54:37.326+01:00,13924.851736,-0.7050323486328125,0.79705810546875,-0.6993408203125
2023-11-22T21:54:37.346+01:00,13924.871673,-0.57000732421875,0.6741790771484375,-0.53619384765625
2023-11-22T21:54:37.366+01:00,13924.89161,-0.4105987548828125,0.5209808349609375,-0.3916778564453125
2023-11-22T21:54:37.386+01:00,13924.911548,-0.2527008056640625,0.38653564453125,-0.3217010498046875
2023-11-22T21:54:37.406+01:00,13924.931485,-0.1075592041015625,0.365264892578125,-0.2943115234375
2023-11-22T21:54:37.426+01:00,13924.951422,0.0473480224609375,0.297088623046875,-0.201934814453125
2023-11-22T21:54:37.446+01:00,13924.97136,0.1385040283203125,0.1938323974609375,-0.11578369140625
2023-11-22T21:54:37.465+01:00,13924.991297,0.137481689453125,0.1063385009765625,-0.1364593505859375
2023-11-22T21:54:37.485+01:00,13925.011234,0.0668487548828125,0.090606689453125,-0.201171875
2023-11-22T21:54:37.505+01:00,13925.031172,-0.1084747314453125,0.036224365234375,-0.3151397705078125
2023-11-22T21:54:37.525+01:00,13925.051109,-0.386749267578125,0.2359161376953125,-0.4235992431640625
2023-11-22T21:54:37.545+01:00,13925.07104629167,-0.7834014892578125,0.4267120361328125,-0.5884857177734375
2023-11-22T21:54:37.565+01:00,13925.09098429167,-1.269363403320312,0.2913055419921875,-0.6200103759765625
2023-11-22T21:54:37.585+01:00,13925.11092129167,-1.572296142578125,0.4278106689453125,-0.442779541015625
2023-11-22T21:54:37.605+01:00,13925.13085829167,-1.70440673828125,0.55975341796875,-0.420806884765625
2023-11-22T21:54:37.625+01:00,13925.15079629167,-1.727645874023438,0.7856903076171875,-0.244140625
2023-11-22T21:54:37.645+01:00,13925.17073329167,-1.927261352539062,0.9473419189453125,-0.1974945068359375
2023-11-22T21:54:37.665+01:00,13925.19067029167,-2.341049194335938,1.602249145507812,-0.7980194091796875
2023-11-22T21:54:37.685+01:00,13925.21060829167,-2.165237426757812,0.8613739013671875,-0.687042236328125
2023-11-22T21:54:37.705+01:00,13925.23054529167,-2.121673583984375,0.4181671142578125,-0.156097412109375
2023-11-22T21:54:37.725+01:00,13925.25048329167,-1.526840209960938,-0.1211090087890625,-0.58306884765625
2023-11-22T21:54:37.745+01:00,13925.27042029167,-1.1966552734375,0.0920562744140625,-0.871337890625
2023-11-22T21:54:37.765+01:00,13925.29035729167,-0.7952423095703125,0.2776031494140625,-0.9543304443359375
2023-11-22T21:54:37.784+01:00,13925.31029529167,-0.3846282958984375,0.9177398681640625,-1.036407470703125
2023-11-22T21:54:37.804+01:00,13925.33023229167,-0.2415618896484375,1.006378173828125,-0.961181640625
2023-11-22T21:54:37.824+01:00,13925.35016929167,-0.22308349609375,0.75201416015625,-0.831268310546875
2023-11-22T21:54:37.844+01:00,13925.37010729167,-0.0440521240234375,0.8988494873046875,-0.657623291015625
2023-11-22T21:54:37.864+01:00,13925.39004429167,0.097900390625,1.455154418945312,-0.685302734375
2023-11-22T21:54:37.884+01:00,13925.40998129167,0.09820556640625,1.628860473632812,-0.7979888916015625
2023-11-22T21:54:37.904+01:00,13925.42991929167,0.084228515625,1.58038330078125,-0.690948486328125
2023-11-22T21:54:37.924+01:00,13925.44985629167,0.034332275390625,1.475128173828125,-0.6749725341796875
2023-11-22T21:54:37.944+01:00,13925.46979329167,0.1711883544921875,1.296096801757812,-0.6105804443359375
2023-11-22T21:54:37.964+01:00,13925.48973129167,0.16619873046875,0.9438018798828125,-0.4205474853515625
2023-11-22T21:54:37.984+01:00,13925.50966829167,0.0986480712890625,0.61285400390625,-0.3241119384765625
2023-11-22T21:54:38.004+01:00,13925.52960529167,0.08349609375,0.4372100830078125,-0.3177032470703125
2023-11-22T21:54:38.024+01:00,13925.54954329167,0.03961181640625,0.1184234619140625,-0.2545623779296875
2023-11-22T21:54:38.044+01:00,13925.56948029167,0.013275146484375,-0.2048187255859375,-0.203277587890625
2023-11-22T21:54:38.064+01:00,13925.58941729167,-0.0154571533203125,-0.3279876708984375,-0.2103729248046875
2023-11-22T21:54:38.084+01:00,13925.60935529167,-0.045867919921875,-0.2753143310546875,-0.2623443603515625
2023-11-22T21:54:38.104+01:00,13925.62929229167,-0.08306884765625,-0.193817138671875,-0.337646484375
2023-11-22T21:54:38.124+01:00,13925.64922929167,-0.072509765625,-0.1249542236328125,-0.376190185546875
2023-11-22T21:54:38.144+01:00,13925.66916729167,-0.0158843994140625,-0.0705108642578125,-0.468963623046875
2023-11-22T21:54:38.164+01:00,13925.68910429167,0.0633087158203125,-0.0169830322265625,-0.6201019287109375
2023-11-22T21:54:38.183+01:00,13925.70904129167,0.2179107666015625,0.0293426513671875,-0.789306640625
2023-11-22T21:54:38.203+01:00,13925.72897929167,0.5281524658203125,0.0664520263671875,-0.9801483154296875
2023-11-22T21:54:38.223+01:00,13925.74891629167,1.121185302734375,0.2127685546875,-1.1915283203125
2023-11-22T21:54:38.243+01:00,13925.76885329167,1.52423095703125,0.342864990234375,-1.045242309570312
2023-11-22T21:54:38.263+01:00,13925.78879129167,1.457473754882812,0.363037109375,-0.878662109375
2023-11-22T21:54:38.283+01:00,13925.80872829167,1.617340087890625,0.568939208984375,-0.9446258544921875
2023-11-22T21:54:38.303+01:00,13925.82866529167,1.651275634765625,0.711578369140625,-0.9759521484375
2023-11-22T21:54:38.323+01:00,13925.84860329167,1.478240966796875,0.6913909912109375,-0.737579345703125
2023-11-22T21:54:38.343+01:00,13925.86854029167,1.42474365234375,0.641265869140625,-0.5961761474609375
2023-11-22T21:54:38.363+01:00,13925.88847729167,1.241317749023438,0.6767120361328125,-0.5337982177734375
2023-11-22T21:54:38.382+01:00,13925.90841529167,0.923065185546875,0.5861053466796875,-0.4651336669921875
2023-11-22T21:54:38.402+01:00,13925.92835229167,0.687591552734375,0.4016571044921875,-0.35980224609375
2023-11-22T21:54:38.422+01:00,13925.94828929167,0.50140380859375,0.2467498779296875,-0.2894287109375
2023-11-22T21:54:38.442+01:00,13925.96822729167,0.3960723876953125,0.1647186279296875,-0.2678070068359375
2023-11-22T21:54:38.462+01:00,13925.98816429167,0.4012908935546875,0.1238555908203125,-0.3310089111328125
2023-11-22T21:54:38.482+01:00,13926.00810129167,0.458587646484375,0.1759185791015625,-0.29150390625
2023-11-22T21:54:38.502+01:00,13926.02803929167,0.57562255859375,0.1690673828125,-0.2868804931640625
2023-11-22T21:54:38.522+01:00,13926.04797629167,0.7233428955078125,0.182525634765625,-0.3127899169921875
2023-11-22T21:54:38.542+01:00,13926.06791225,0.8999786376953125,0.18603515625,-0.3687896728515625
2023-11-22T21:54:38.562+01:00,13926.08785025,1.172073364257812,0.1562347412109375,-0.454376220703125
2023-11-22T21:54:38.582+01:00,13926.10778725,1.55267333984375,0.3430328369140625,-0.32470703125
2023-11-22T21:54:38.602+01:00,13926.12772425,2.001998901367188,0.6241912841796875,-0.4842987060546875
2023-11-22T21:54:38.622+01:00,13926.14766225,2.53326416015625,0.2897796630859375,-0.275115966796875
2023-11-22T21:54:38.642+01:00,13926.16759925,2.64654541015625,-0.4405517578125,-0.08935546875
2023-11-22T21:54:38.662+01:00,13926.18753625,2.455093383789062,-0.9721221923828125,0.4812774658203125
2023-11-22T21:54:38.682+01:00,13926.20747425,2.231781005859375,-0.6628570556640625,1.029022216796875
2023-11-22T21:54:38.702+01:00,13926.22741125,1.398452758789062,-0.0279693603515625,1.590988159179688
2023-11-22T21:54:38.721+01:00,13926.24734825,0.978057861328125,0.4858856201171875,2.105148315429688
2023-11-22T21:54:38.741+01:00,13926.26728625,0.4198455810546875,1.426651000976562,2.59796142578125
2023-11-22T21:54:38.761+01:00,13926.28722325,-1.50048828125,1.690216064453125,4.70880126953125
2023-11-22T21:54:38.781+01:00,13926.30716025,-5.543869018554688,1.392364501953125,6.2530517578125
2023-11-22T21:54:38.801+01:00,13926.32709825,-5.192153930664062,1.454421997070312,3.962371826171875
2023-11-22T21:54:38.821+01:00,13926.34703525,-6.955642700195312,0.8064117431640625,0.8336334228515625
2023-11-22T21:54:38.841+01:00,13926.36697225,-6.405914306640625,0.3119659423828125,-0.83758544921875
2023-11-22T21:54:38.861+01:00,13926.38691025,-5.367874145507812,-0.097808837890625,0.5153961181640625
2023-11-22T21:54:38.881+01:00,13926.40684725,-7.973251342773438,-0.140625,-3.904327392578125
2023-11-22T21:54:38.901+01:00,13926.42678425,-5.928207397460938,0.4745330810546875,-1.801589965820312
2023-11-22T21:54:38.921+01:00,13926.44672225,-4.630203247070312,-1.240066528320312,-1.692489624023438
2023-11-22T21:54:38.941+01:00,13926.46665925,-3.254684448242188,-2.130859375,-1.87420654296875
2023-11-22T21:54:38.961+01:00,13926.48659625,-2.121109008789062,-0.853179931640625,-2.27777099609375
2023-11-22T21:54:38.981+01:00,13926.50653425,-1.975067138671875,0.3822174072265625,-3.074600219726562
2023-11-22T21:54:39.001+01:00,13926.52647125,-1.578338623046875,0.1292266845703125,-2.864120483398438
2023-11-22T21:54:39.021+01:00,13926.54640825,-1.520065307617188,0.3094329833984375,-2.553909301757812
2023-11-22T21:54:39.041+01:00,13926.56634625,-2.364715576171875,1.98321533203125,-1.986968994140625
2023-11-22T21:54:39.060+01:00,13926.58628325,-2.0667724609375,2.77337646484375,-2.024032592773438
2023-11-22T21:54:39.080+01:00,13926.60622025,-1.994155883789062,2.511398315429688,-2.070449829101562
2023-11-22T21:54:39.100+01:00,13926.62615825,-2.580032348632812,2.221755981445312,-2.13739013671875
2023-11-22T21:54:39.120+01:00,13926.64609525,-2.485275268554688,2.0667724609375,-2.197769165039062
2023-11-22T21:54:39.140+01:00,13926.66603225,-2.185256958007812,2.290191650390625,-2.231185913085938
2023-11-22T21:54:39.160+01:00,13926.68597025,-1.94219970703125,2.464401245117188,-2.13812255859375
2023-11-22T21:54:39.180+01:00,13926.70590725,-1.534988403320312,2.058181762695312,-1.867904663085938
2023-11-22T21:54:39.200+01:00,13926.72584525,-1.0321044921875,1.588333129882812,-1.508071899414062
2023-11-22T21:54:39.220+01:00,13926.74578225,-0.3865966796875,1.553909301757812,-1.095382690429688
2023-11-22T21:54:39.240+01:00,13926.76571925,0.2127685546875,1.245559692382812,-0.87493896484375
2023-11-22T21:54:39.260+01:00,13926.78565625,0.4573822021484375,0.8887176513671875,-0.526947021484375
2023-11-22T21:54:39.280+01:00,13926.80559425,0.694091796875,0.30718994140625,-0.1956939697265625
2023-11-22T21:54:39.300+01:00,13926.82553125,0.8757476806640625,0.0888519287109375,0.13006591796875
2023-11-22T21:54:39.320+01:00,13926.84546925,0.910125732421875,0.0679473876953125,0.2540740966796875
2023-11-22T21:54:39.340+01:00,13926.86540625,0.8640289306640625,0.121856689453125,0.303741455078125
2023-11-22T21:54:39.359+01:00,13926.88534325,0.6958160400390625,0.43408203125,0.40521240234375
2023-11-22T21:54:39.379+01:00,13926.90528125,0.6067962646484375,0.9429779052734375,0.3025970458984375
2023-11-22T21:54:39.399+01:00,13926.92521825,0.5484619140625,1.410385131835938,0.2828826904296875
2023-11-22T21:54:39.419+01:00,13926.94515525,0.1728363037109375,1.361251831054688,0.29315185546875
2023-11-22T21:54:39.439+01:00,13926.96509225,-0.540069580078125,1.823883056640625,0.208099365234375
2023-11-22T21:54:39.459+01:00,13926.98503025,-1.087631225585938,1.565399169921875,0.2071533203125
2023-11-22T21:54:39.479+01:00,13927.00496725,-1.458251953125,0.55230712890625,0.59893798828125
2023-11-22T21:54:39.499+01:00,13927.02490425,-1.875778198242188,-0.26171875,0.78228759765625
2023-11-22T21:54:39.519+01:00,13927.04484225,-1.882034301757812,0.379669189453125,0.489898681640625
2023-11-22T21:54:39.539+01:00,13927.06478004167,-1.924224853515625,1.14349365234375,-0.23199462890625
2023-11-22T21:54:39.559+01:00,13927.08471704167,-1.462371826171875,1.54852294921875,-1.015792846679688
2023-11-22T21:54:39.579+01:00,13927.10465504167,-0.8618927001953125,0.3652191162109375,-0.1666259765625
2023-11-22T21:54:39.599+01:00,13927.12459204167,-0.595703125,-0.8228302001953125,0.405731201171875
2023-11-22T21:54:39.619+01:00,13927.14453004167,-0.5783538818359375,-0.3696136474609375,0.3092803955078125
2023-11-22T21:54:39.639+01:00,13927.16446704167,-0.46759033203125,0.306304931640625,0.0847015380859375
2023-11-22T21:54:39.659+01:00,13927.18440404167,-0.2493438720703125,0.1969757080078125,0.1638946533203125
2023-11-22T21:54:39.679+01:00,13927.20434204167,-0.158599853515625,-0.034393310546875,0.079559326171875
2023-11-22T21:54:39.698+01:00,13927.22427904167,-0.343048095703125,0.0157470703125,-0.135772705078125
2023-11-22T21:54:39.718+01:00,13927.24421604167,-0.750091552734375,0.115753173828125,-0.2744293212890625
2023-11-22T21:54:39.738+01:00,13927.26415404167,-1.219970703125,0.16156005859375,-0.226715087890625
2023-11-22T21:54:39.758+01:00,13927.28409104167,-1.728591918945312,0.34588623046875,-0.2008514404296875
2023-11-22T21:54:39.778+01:00,13927.30402804167,-1.912368774414062,0.37994384765625,-0.287017822265625
2023-11-22T21:54:39.798+01:00,13927.32396604167,-1.84112548828125,0.5491790771484375,-0.338775634765625
2023-11-22T21:54:39.818+01:00,13927.34390304167,-1.8583984375,0.453155517578125,-0.50299072265625
2023-11-22T21:54:39.838+01:00,13927.36384004167,-1.6658935546875,0.5005645751953125,-0.544097900390625
2023-11-22T21:54:39.858+01:00,13927.38377804167,-1.43365478515625,0.540557861328125,-0.6475067138671875
2023-11-22T21:54:39.878+01:00,13927.40371504167,-1.160125732421875,0.5735931396484375,-0.7697601318359375
2023-11-22T21:54:39.898+01:00,13927.42365204167,-0.9375762939453125,0.51483154296875,-0.6874847412109375
2023-11-22T21:54:39.918+01:00,13927.44359004167,-0.7846221923828125,0.28790283203125,-0.6108856201171875
2023-11-22T21:54:39.938+01:00,13927.46352704167,-0.5992431640625,0.2327423095703125,-0.5617523193359375
2023-11-22T21:54:39.958+01:00,13927.48346404167,-0.4561767578125,0.2692718505859375,-0.4162445068359375
2023-11-22T21:54:39.978+01:00,13927.50340204167,-0.40692138671875,0.1960906982421875,-0.3911285400390625
2023-11-22T21:54:39.998+01:00,13927.52333904167,-0.3248291015625,0.2920379638671875,-0.414642333984375
2023-11-22T21:54:40.017+01:00,13927.54327604167,-0.2548980712890625,0.308563232421875,-0.38458251953125
2023-11-22T21:54:40.037+01:00,13927.56321404167,-0.2141571044921875,0.2536163330078125,-0.3545989990234375
2023-11-22T21:54:40.057+01:00,13927.58315104167,-0.19708251953125,0.2652587890625,-0.29443359375
2023-11-22T21:54:40.077+01:00,13927.60308804167,-0.2138519287109375,0.230560302734375,-0.309661865234375
2023-11-22T21:54:40.097+01:00,13927.62302604167,-0.2161102294921875,0.1852874755859375,-0.2965545654296875
2023-11-22T21:54:40.117+01:00,13927.64296304167,-0.2531280517578125,0.2354278564453125,-0.376373291015625
2023-11-22T21:54:40.137+01:00,13927.66290004167,-0.3668060302734375,0.2943115234375,-0.393402099609375
2023-11-22T21:54:40.157+01:00,13927.68283804167,-0.523101806640625,0.2048797607421875,-0.416015625
2023-11-22T21:54:40.177+01:00,13927.70277504167,-0.7163848876953125,0.2362213134765625,-0.463348388671875
2023-11-22T21:54:40.197+01:00,13927.72271204167,-0.951385498046875,0.2880859375,-0.469696044921875
2023-11-22T21:54:40.217+01:00,13927.74265004167,-1.155242919921875,0.2881622314453125,-0.5697479248046875
2023-11-22T21:54:40.237+01:00,13927.76258704167,-1.382705688476562,0.3912353515625,-0.6178741455078125
2023-11-22T21:54:40.257+01:00,13927.78252404167,-1.68865966796875,0.4188079833984375,-0.7804718017578125
2023-11-22T21:54:40.277+01:00,13927.80246204167,-1.841659545898438,0.5013427734375,-0.771697998046875
2023-11-22T21:54:40.297+01:00,13927.82239904167,-1.45794677734375,0.39605712890625,-0.5129241943359375
2023-11-22T21:54:40.317+01:00,13927.84233604167,-1.022933959960938,0.3826446533203125,-0.366119384765625
2023-11-22T21:54:40.336+01:00,13927.86227404167,-0.8341064453125,0.5546722412109375,-0.3589324951171875
2023-11-22T21:54:40.356+01:00,13927.88221104167,-0.942626953125,0.5291900634765625,-0.4310760498046875
2023-11-22T21:54:40.376+01:00,13927.90214804167,-1.098526000976562,0.3574981689453125,-0.38739013671875
2023-11-22T21:54:40.396+01:00,13927.92208604167,-1.197647094726562,0.089447021484375,-0.35308837890625
2023-11-22T21:54:40.416+01:00,13927.94202304167,-1.21844482421875,0.0923614501953125,-0.3433837890625
2023-11-22T21:54:40.436+01:00,13927.96196004167,-1.212905883789062,0.058197021484375,-0.3052520751953125
2023-11-22T21:54:40.456+01:00,13927.98189804167,-1.169540405273438,0.1534881591796875,-0.3081207275390625
2023-11-22T21:54:40.476+01:00,13928.00183504167,-1.10333251953125,0.2174224853515625,-0.3124542236328125
2023-11-22T21:54:40.496+01:00,13928.02177204167,-1.021316528320312,0.2317352294921875,-0.2956085205078125
2023-11-22T21:54:40.516+01:00,13928.04171004167,-0.95111083984375,0.259674072265625,-0.2954559326171875
2023-11-22T21:54:40.536+01:00,13928.06164591667,-0.9029083251953125,0.2518463134765625,-0.278045654296875
2023-11-22T21:54:40.556+01:00,13928.08158291667,-0.8665771484375,0.26171875,-0.267608642578125
2023-11-22T21:54:40.576+01:00,13928.10152091667,-0.861083984375,0.26776123046875,-0.2718353271484375
2023-11-22T21:54:40.596+01:00,13928.12145791667,-0.8739166259765625,0.25299072265625,-0.25958251953125
2023-11-22T21:54:40.616+01:00,13928.14139491667,-0.8999481201171875,0.2274322509765625,-0.2635498046875
2023-11-22T21:54:40.636+01:00,13928.16133291667,-0.959014892578125,0.193817138671875,-0.2724609375
2023-11-22T21:54:40.655+01:00,13928.18126991667,-0.966033935546875,0.181243896484375,-0.2631072998046875
2023-11-22T21:54:40.675+01:00,13928.20120691667,-0.941497802734375,0.1536712646484375,-0.249267578125
2023-11-22T21:54:40.695+01:00,13928.22114491667,-0.9998779296875,0.163543701171875,-0.26226806640625
2023-11-22T21:54:40.715+01:00,13928.24108191667,-1.08685302734375,0.1807708740234375,-0.2914581298828125
2023-11-22T21:54:40.735+01:00,13928.26101891667,-1.109848022460938,0.187103271484375,-0.3046112060546875
2023-11-22T21:54:40.755+01:00,13928.28095691667,-1.027206420898438,0.1407318115234375,-0.297698974609375
2023-11-22T21:54:40.775+01:00,13928.30089391667,-0.94000244140625,0.0671234130859375,-0.2881317138671875
2023-11-22T21:54:40.795+01:00,13928.32083091667,-0.8924560546875,0.0285186767578125,-0.2995147705078125
2023-11-22T21:54:40.815+01:00,13928.34076891667,-0.859588623046875,0.1217041015625,-0.3543701171875
2023-11-22T21:54:40.835+01:00,13928.36070591667,-0.779327392578125,0.2188873291015625,-0.373870849609375
2023-11-22T21:54:40.855+01:00,13928.38064291667,-0.7369842529296875,0.2379150390625,-0.4174346923828125
2023-11-22T21:54:40.875+01:00,13928.40058091667,-0.75537109375,0.3124237060546875,-0.4989166259765625
2023-11-22T21:54:40.895+01:00,13928.42051791667,-0.7476959228515625,0.290863037109375,-0.509002685546875
2023-11-22T21:54:40.915+01:00,13928.44045491667,-0.7159271240234375,0.17669677734375,-0.4610748291015625
2023-11-22T21:54:40.935+01:00,13928.46039291667,-0.751983642578125,0.0510711669921875,-0.4898681640625
2023-11-22T21:54:40.954+01:00,13928.48032991667,-0.8479156494140625,0.1536102294921875,-0.5664215087890625
2023-11-22T21:54:40.974+01:00,13928.50026691667,-0.9477996826171875,0.312042236328125,-0.6025848388671875
2023-11-22T21:54:40.995+01:00,13928.52020491667,-1.0291748046875,0.270660400390625,-0.537384033203125
2023-11-22T21:54:41.014+01:00,13928.54014191667,-1.128768920898438,0.17303466796875,-0.4619598388671875
2023-11-22T21:54:41.034+01:00,13928.56007891667,-1.233139038085938,0.2485809326171875,-0.4263458251953125
2023-11-22T21:54:41.054+01:00,13928.58001591667,-1.221725463867188,0.34613037109375,-0.3658905029296875
2023-11-22T21:54:41.074+01:00,13928.59995391667,-1.108108520507812,0.3901214599609375,-0.3030242919921875
2023-11-22T21:54:41.094+01:00,13928.61989091667,-0.9773406982421875,0.4241485595703125,-0.2360076904296875
2023-11-22T21:54:41.114+01:00,13928.63982791667,-0.8567962646484375,0.447662353515625,-0.175750732421875
2023-11-22T21:54:41.134+01:00,13928.65976591667,-0.7932586669921875,0.4271240234375,-0.1439971923828125
2023-11-22T21:54:41.154+01:00,13928.67970291667,-0.7783966064453125,0.4376678466796875,-0.136688232421875
2023-11-22T21:54:41.174+01:00,13928.69963991667,-0.7968902587890625,0.3917694091796875,-0.136505126953125
2023-11-22T21:54:41.194+01:00,13928.71957791667,-0.84185791015625,0.3834991455078125,-0.162200927734375
2023-11-22T21:54:41.214+01:00,13928.73951491667,-0.9310760498046875,0.4152984619140625,-0.18707275390625
2023-11-22T21:54:41.234+01:00,13928.75945191667,-1.0040283203125,0.568817138671875,-0.18890380859375
2023-11-22T21:54:41.254+01:00,13928.77938991667,-1.013137817382812,0.6410369873046875,-0.1867218017578125
2023-11-22T21:54:41.274+01:00,13928.79932691667,-0.96368408203125,0.6512908935546875,-0.1837615966796875
2023-11-22T21:54:41.293+01:00,13928.81926391667,-0.8846282958984375,0.642578125,-0.193145751953125
2023-11-22T21:54:41.313+01:00,13928.83920191667,-0.807464599609375,0.5863494873046875,-0.254119873046875
2023-11-22T21:54:41.333+01:00,13928.85913891667,-0.7703399658203125,0.723419189453125,-0.27490234375
2023-11-22T21:54:41.353+01:00,13928.87907591667,-0.8348541259765625,0.6953125,-0.347869873046875
2023-11-22T21:54:41.373+01:00,13928.89901391667,-0.878570556640625,0.721282958984375,-0.3597869873046875
2023-11-22T21:54:41.393+01:00,13928.91895091667,-0.879364013671875,0.6981201171875,-0.31207275390625
2023-11-22T21:54:41.413+01:00,13928.93888791667,-0.935577392578125,0.704193115234375,-0.29095458984375
2023-11-22T21:54:41.433+01:00,13928.95882591667,-0.9891510009765625,0.78643798828125,-0.3044891357421875
2023-11-22T21:54:41.453+01:00,13928.97876291667,-1.005722045898438,0.8640594482421875,-0.305999755859375
2023-11-22T21:54:41.473+01:00,13928.99869991667,-1.139312744140625,0.880279541015625,-0.31561279296875
2023-11-22T21:54:41.493+01:00,13929.01863791667,-1.197921752929688,0.8583984375,-0.300537109375
2023-11-22T21:54:41.513+01:00,13929.03857491667,-1.034011840820312,0.70831298828125,-0.2594451904296875
2023-11-22T21:54:41.533+01:00,13929.0585135,-0.839141845703125,0.5666656494140625,-0.24163818359375
2023-11-22T21:54:41.553+01:00,13929.0784515,-0.7358856201171875,0.53485107421875,-0.259796142578125
2023-11-22T21:54:41.573+01:00,13929.0983885,-0.6945343017578125,0.5493927001953125,-0.26312255859375
2023-11-22T21:54:41.593+01:00,13929.1183255,-0.7543792724609375,0.559417724609375,-0.2448883056640625
2023-11-22T21:54:41.612+01:00,13929.1382635,-0.857635498046875,0.59661865234375,-0.214263916015625
2023-11-22T21:54:41.632+01:00,13929.1582005,-0.96893310546875,0.6340484619140625,-0.1942901611328125
2023-11-22T21:54:41.652+01:00,13929.1781375,-1.12261962890625,0.6846466064453125,-0.170166015625
2023-11-22T21:54:41.672+01:00,13929.1980755,-1.316207885742188,0.714324951171875,-0.154022216796875
2023-11-22T21:54:41.692+01:00,13929.2180125,-1.48455810546875,0.6794281005859375,-0.1129150390625
2023-11-22T21:54:41.712+01:00,13929.2379495,-1.6219482421875,0.5309906005859375,-0.097930908203125
2023-11-22T21:54:41.732+01:00,13929.2578875,-1.605926513671875,0.2336883544921875,-0.1292724609375
2023-11-22T21:54:41.752+01:00,13929.2778245,-1.474655151367188,-0.0054779052734375,-0.21185302734375
2023-11-22T21:54:41.772+01:00,13929.2977615,-1.323944091796875,-0.015380859375,-0.2730560302734375
2023-11-22T21:54:41.792+01:00,13929.3176995,-1.238571166992188,0.105255126953125,-0.377349853515625
2023-11-22T21:54:41.812+01:00,13929.3376365,-1.147735595703125,0.3024749755859375,-0.3566131591796875
2023-11-22T21:54:41.832+01:00,13929.3575735,-1.063400268554688,0.3766021728515625,-0.265838623046875
2023-11-22T21:54:41.852+01:00,13929.3775115,-1.007919311523438,0.3798828125,-0.171661376953125
2023-11-22T21:54:41.872+01:00,13929.3974485,-0.963714599609375,0.2974853515625,-0.1142578125
2023-11-22T21:54:41.892+01:00,13929.4173855,-0.86322021484375,0.2507476806640625,-0.11639404296875
2023-11-22T21:54:41.912+01:00,13929.4373235,-0.7942657470703125,0.2258148193359375,-0.167572021484375
2023-11-22T21:54:41.931+01:00,13929.4572605,-0.717071533203125,0.170257568359375,-0.214263916015625
2023-11-22T21:54:41.951+01:00,13929.4771975,-0.6690216064453125,0.060577392578125,-0.2335205078125
2023-11-22T21:54:41.971+01:00,13929.4971355,-0.6150054931640625,-0.0564727783203125,-0.2610321044921875
2023-11-22T21:54:41.991+01:00,13929.5170725,-0.5725860595703125,-0.0880279541015625,-0.28369140625
2023-11-22T21:54:42.011+01:00,13929.5370095,-0.53656005859375,-0.082183837890625,-0.3501434326171875
2023-11-22T21:54:42.031+01:00,13929.5569475,-0.50616455078125,-0.1076812744140625,-0.373809814453125
2023-11-22T21:54:42.053+01:00,13929.5768845,-0.4935150146484375,-0.13116455078125,-0.381561279296875
2023-11-22T21:54:42.071+01:00,13929.5968215,-0.4876861572265625,-0.071075439453125,-0.431732177734375
2023-11-22T21:54:42.091+01:00,13929.6167585,-0.532379150390625,0.032989501953125,-0.4749908447265625
2023-11-22T21:54:42.111+01:00,13929.6366965,-0.6153717041015625,0.1673736572265625,-0.521881103515625
2023-11-22T21:54:42.131+01:00,13929.6566335,-0.70147705078125,0.2214813232421875,-0.4974212646484375
2023-11-22T21:54:42.151+01:00,13929.6765705,-0.808349609375,0.1783447265625,-0.521697998046875
2023-11-22T21:54:42.171+01:00,13929.6965085,-0.848602294921875,0.0803375244140625,-0.6511077880859375
2023-11-22T21:54:42.191+01:00,13929.7164455,-1.035797119140625,-0.0275421142578125,-0.977813720703125
2023-11-22T21:54:42.211+01:00,13929.7363825,-1.280715942382812,0.2973785400390625,-1.032974243164062
2023-11-22T21:54:42.231+01:00,13929.7563205,-1.3651123046875,0.508941650390625,-0.859344482421875
2023-11-22T21:54:42.250+01:00,13929.7762575,-1.445693969726562,0.6827392578125,-0.81396484375
2023-11-22T21:54:42.270+01:00,13929.7961945,-1.467315673828125,0.651947021484375,-0.713531494140625
2023-11-22T21:54:42.290+01:00,13929.8161325,-1.362869262695312,0.48284912109375,-0.7125091552734375
2023-11-22T21:54:42.310+01:00,13929.8360695,-1.248992919921875,0.459503173828125,-0.672119140625
2023-11-22T21:54:42.330+01:00,13929.8560065,-0.9925689697265625,0.6893310546875,-0.4290618896484375
2023-11-22T21:54:42.350+01:00,13929.8759445,-0.8117523193359375,0.8448333740234375,-0.37066650390625
2023-11-22T21:54:42.370+01:00,13929.8958815,-0.926605224609375,0.5056610107421875,-0.30889892578125
2023-11-22T21:54:42.390+01:00,13929.9158185,-0.9564971923828125,0.0345458984375,-0.23516845703125
2023-11-22T21:54:42.410+01:00,13929.9357565,-0.96453857421875,-0.112457275390625,-0.1947479248046875
2023-11-22T21:54:42.430+01:00,13929.9556935,-0.9361419677734375,-0.167388916015625,-0.2037353515625
2023-11-22T21:54:42.450+01:00,13929.9756305,-0.9820404052734375,0.0041656494140625,-0.2198638916015625
2023-11-22T21:54:42.470+01:00,13929.9955685,-0.998565673828125,0.2172393798828125,-0.2260589599609375
2023-11-22T21:54:42.490+01:00,13930.0155055,-0.9721832275390625,0.546630859375,-0.21234130859375
2023-11-22T21:54:42.510+01:00,13930.0354425,-0.9017333984375,0.7198333740234375,-0.172576904296875
2023-11-22T21:54:42.529+01:00,13930.0553805,-0.8259429931640625,0.749908447265625,-0.1573638916015625
2023-11-22T21:54:42.550+01:00,13930.075316875,-0.786376953125,0.7067413330078125,-0.17144775390625
2023-11-22T21:54:42.569+01:00,13930.095253875,-0.7669830322265625,0.6689605712890625,-0.2571868896484375
2023-11-22T21:54:42.589+01:00,13930.115191875,-0.742919921875,0.581512451171875,-0.2938079833984375
2023-11-22T21:54:42.609+01:00,13930.135128875,-0.732635498046875,0.4452667236328125,-0.311309814453125
2023-11-22T21:54:42.629+01:00,13930.155065875,-0.73406982421875,0.4678497314453125,-0.282135009765625
2023-11-22T21:54:42.649+01:00,13930.175003875,-0.7759552001953125,0.4875640869140625,-0.244110107421875
2023-11-22T21:54:42.669+01:00,13930.194940875,-0.839202880859375,0.5310516357421875,-0.3339996337890625
2023-11-22T21:54:42.689+01:00,13930.214877875,-1.01971435546875,0.4660797119140625,-0.3734130859375
2023-11-22T21:54:42.709+01:00,13930.234815875,-1.235702514648438,-0.049285888671875,-0.3582305908203125
2023-11-22T21:54:42.729+01:00,13930.254752875,-1.19952392578125,-0.0790557861328125,-0.6621246337890625
2023-11-22T21:54:42.749+01:00,13930.274689875,-0.809173583984375,-0.036102294921875,-0.608489990234375
2023-11-22T21:54:42.769+01:00,13930.294626875,-0.81146240234375,0.02972412109375,-0.58685302734375
2023-11-22T21:54:42.789+01:00,13930.314564875,-0.982391357421875,-0.1466217041015625,-0.4753265380859375
2023-11-22T21:54:42.809+01:00,13930.334501875,-1.01544189453125,-0.4440155029296875,-0.5294342041015625
2023-11-22T21:54:42.829+01:00,13930.354438875,-1.125640869140625,-0.52850341796875,-0.567413330078125
2023-11-22T21:54:42.849+01:00,13930.374376875,-0.9841156005859375,-0.4505615234375,-0.4908905029296875
2023-11-22T21:54:42.869+01:00,13930.394313875,-0.9459686279296875,-0.2260284423828125,-0.4833984375
2023-11-22T21:54:42.888+01:00,13930.414250875,-1.017410278320312,-0.0444183349609375,-0.391357421875
2023-11-22T21:54:42.908+01:00,13930.434188875,-1.077316284179688,0.127899169921875,-0.26654052734375
2023-11-22T21:54:42.928+01:00,13930.454125875,-0.994232177734375,0.0789642333984375,-0.3686676025390625
2023-11-22T21:54:42.948+01:00,13930.474062875,-0.8195648193359375,0.265472412109375,-0.322601318359375
2023-11-22T21:54:42.968+01:00,13930.494000875,-0.75238037109375,0.32891845703125,-0.3060150146484375
2023-11-22T21:54:42.988+01:00,13930.513937875,-0.7121429443359375,0.505706787109375,-0.0333251953125
2023-11-22T21:54:43.008+01:00,13930.533874875,-0.7390899658203125,0.5709381103515625,-0.271392822265625
2023-11-22T21:54:43.028+01:00,13930.553812875,-0.7186126708984375,0.615997314453125,-0.2610626220703125
2023-11-22T21:54:43.048+01:00,13930.573749875,-0.6402740478515625,0.4159088134765625,-0.14495849609375
2023-11-22T21:54:43.068+01:00,13930.593686875,-0.5573577880859375,0.4094390869140625,-0.0556640625
2023-11-22T21:54:43.088+01:00,13930.613624875,-0.2852325439453125,0.3822479248046875,-0.007720947265625
2023-11-22T21:54:43.108+01:00,13930.633561875,0.231781005859375,0.5064697265625,-0.069732666015625
2023-11-22T21:54:43.128+01:00,13930.653498875,0.5758819580078125,0.72467041015625,-0.0793609619140625
2023-11-22T21:54:43.148+01:00,13930.673436875,0.157440185546875,0.6562042236328125,0.0683135986328125
2023-11-22T21:54:43.167+01:00,13930.693373875,-0.6147308349609375,0.750701904296875,-0.1691741943359375
2023-11-22T21:54:43.188+01:00,13930.713310875,-0.565521240234375,1.0220947265625,-0.2809295654296875
2023-11-22T21:54:43.208+01:00,13930.733248875,-0.032073974609375,1.59478759765625,0.028656005859375
2023-11-22T21:54:43.227+01:00,13930.753185875,-0.2003021240234375,1.6602783203125,0.222503662109375
2023-11-22T21:54:43.247+01:00,13930.773122875,-0.288848876953125,1.076034545898438,0.290740966796875
2023-11-22T21:54:43.267+01:00,13930.793059875,-0.0308990478515625,1.801986694335938,0.28643798828125
2023-11-22T21:54:43.287+01:00,13930.812997875,-0.0665283203125,1.544845581054688,0.5469818115234375
2023-11-22T21:54:43.307+01:00,13930.832934875,-0.2294464111328125,1.196929931640625,0.6376953125
2023-11-22T21:54:43.327+01:00,13930.852871875,-0.18743896484375,1.256103515625,0.65087890625
2023-11-22T21:54:43.347+01:00,13930.872809875,-0.3351287841796875,1.620269775390625,0.5771636962890625
2023-11-22T21:54:43.367+01:00,13930.892746875,-0.776214599609375,1.406082153320312,0.5463409423828125
2023-11-22T21:54:43.387+01:00,13930.912683875,-1.2156982421875,0.8689117431640625,0.106170654296875
2023-11-22T21:54:43.407+01:00,13930.932621875,-1.141265869140625,0.4289093017578125,-0.2901611328125
2023-11-22T21:54:43.427+01:00,13930.952558875,-1.024215698242188,0.1372833251953125,-0.4276123046875
2023-11-22T21:54:43.447+01:00,13930.972495875,-1.000900268554688,0.736083984375,-0.0478363037109375
2023-11-22T21:54:43.467+01:00,13930.992433875,-1.976150512695312,0.7756805419921875,1.216415405273438
2023-11-22T21:54:43.486+01:00,13931.012370875,-2.659225463867188,1.890853881835938,1.199127197265625
2023-11-22T21:54:43.506+01:00,13931.032307875,-2.559783935546875,-3.24249267578125,2.8768310546875
2023-11-22T21:54:43.526+01:00,13931.052245875,-2.665847778320312,-2.3665771484375,2.168289184570312
2023-11-22T21:54:43.547+01:00,13931.0721825,-2.91754150390625,-1.521453857421875,0.62890625
2023-11-22T21:54:43.566+01:00,13931.0921195,-2.630340576171875,-1.583282470703125,-0.171356201171875
2023-11-22T21:54:43.586+01:00,13931.1120575,-2.779312133789062,-0.9855194091796875,-0.2787017822265625
2023-11-22T21:54:43.606+01:00,13931.1319945,-2.950164794921875,-0.743133544921875,0.0292816162109375
2023-11-22T21:54:43.626+01:00,13931.1519315,-3.109817504882812,-0.082977294921875,-0.098907470703125
2023-11-22T21:54:43.646+01:00,13931.1718695,-3.486282348632812,0.2941131591796875,-0.502288818359375
2023-11-22T21:54:43.666+01:00,13931.1918065,-3.877395629882812,0.323822021484375,-0.7216033935546875
2023-11-22T21:54:43.686+01:00,13931.2117435,-4.510238647460938,0.4298553466796875,-0.7387237548828125
2023-11-22T21:54:43.706+01:00,13931.2316815,-4.852630615234375,1.261428833007812,-0.321441650390625
2023-11-22T21:54:43.726+01:00,13931.2516185,-5.112716674804688,2.466339111328125,0.488037109375
2023-11-22T21:54:43.746+01:00,13931.2715555,-4.567230224609375,3.205841064453125,0.752532958984375
2023-11-22T21:54:43.766+01:00,13931.2914925,-3.981369018554688,3.186279296875,1.289810180664062
2023-11-22T21:54:43.786+01:00,13931.3114305,-3.4490966796875,2.638214111328125,1.71685791015625
2023-11-22T21:54:43.805+01:00,13931.3313675,-2.560317993164062,2.7672119140625,1.001693725585938
2023-11-22T21:54:43.825+01:00,13931.3513045,-2.189300537109375,1.77923583984375,1.150924682617188
2023-11-22T21:54:43.845+01:00,13931.3712425,-1.531082153320312,1.577362060546875,0.816864013671875
2023-11-22T21:54:43.865+01:00,13931.3911795,-1.15399169921875,1.300033569335938,0.738189697265625
2023-11-22T21:54:43.885+01:00,13931.4111165,-0.9408416748046875,1.163314819335938,0.8563232421875
2023-11-22T21:54:43.905+01:00,13931.4310545,-0.6418914794921875,1.20880126953125,0.759307861328125
2023-11-22T21:54:43.925+01:00,13931.4509915,-0.372802734375,0.89532470703125,0.5024261474609375
2023-11-22T21:54:43.945+01:00,13931.4709285,-0.2560272216796875,0.788665771484375,0.3954010009765625
2023-11-22T21:54:43.965+01:00,13931.4908665,-0.10357666015625,0.76300048828125,0.3770599365234375
2023-11-22T21:54:43.985+01:00,13931.5108035,0.0174560546875,0.473052978515625,0.3774261474609375
2023-11-22T21:54:44.005+01:00,13931.5307405,0.1131591796875,0.2158966064453125,0.301544189453125
2023-11-22T21:54:44.025+01:00,13931.5506785,0.1069793701171875,0.1995391845703125,0.2519378662109375
2023-11-22T21:54:44.045+01:00,13931.5706155,0.053680419921875,0.25244140625,0.2628021240234375
2023-11-22T21:54:44.065+01:00,13931.5905525,-0.0562286376953125,0.2141265869140625,0.192230224609375
2023-11-22T21:54:44.085+01:00,13931.6104905,-0.1402130126953125,0.202972412109375,-0.0052947998046875
2023-11-22T21:54:44.105+01:00,13931.6304275,-0.3006744384765625,0.12176513671875,-0.009429931640625
2023-11-22T21:54:44.125+01:00,13931.6503645,-0.48077392578125,0.1688385009765625,0.037841796875
2023-11-22T21:54:44.145+01:00,13931.6703025,-0.6920623779296875,0.1059722900390625,0.1387481689453125
2023-11-22T21:54:44.164+01:00,13931.6902395,-0.8614654541015625,-0.2129974365234375,0.2119293212890625
2023-11-22T21:54:44.184+01:00,13931.7101765,-0.96728515625,-0.2305755615234375,0.2005462646484375
2023-11-22T21:54:44.204+01:00,13931.7301145,-1.175689697265625,-0.172027587890625,0.0443572998046875
2023-11-22T21:54:44.224+01:00,13931.7500515,-1.192367553710938,-0.4643707275390625,0.0411224365234375
2023-11-22T21:54:44.244+01:00,13931.7699885,-1.180465698242188,-0.90203857421875,0.2223968505859375
2023-11-22T21:54:44.264+01:00,13931.7899255,-1.224212646484375,-0.948883056640625,0.1188507080078125
2023-11-22T21:54:44.284+01:00,13931.8098635,-1.298080444335938,-0.5467681884765625,-0.038787841796875
2023-11-22T21:54:44.304+01:00,13931.8298005,-1.21258544921875,-0.3510894775390625,0.003509521484375
2023-11-22T21:54:44.324+01:00,13931.8497375,-1.110061645507812,-0.36962890625,0.053314208984375
2023-11-22T21:54:44.344+01:00,13931.8696755,-1.184722900390625,-0.239227294921875,0.1151580810546875
2023-11-22T21:54:44.364+01:00,13931.8896125,-1.239425659179688,-0.0939483642578125,0.01910400390625
2023-11-22T21:54:44.384+01:00,13931.9095495,-1.152450561523438,-0.0159912109375,0.0309600830078125
2023-11-22T21:54:44.404+01:00,13931.9294875,-1.139846801757812,0.0439910888671875,0.065460205078125
2023-11-22T21:54:44.424+01:00,13931.9494245,-1.176422119140625,0.124786376953125,0.05401611328125
2023-11-22T21:54:44.444+01:00,13931.9693615,-1.172607421875,0.1981353759765625,0.0624542236328125
2023-11-22T21:54:44.464+01:00,13931.9892995,-1.156341552734375,0.1837005615234375,0.043609619140625
2023-11-22T21:54:44.483+01:00,13932.0092365,-1.146713256835938,0.194183349609375,0.016693115234375
2023-11-22T21:54:44.503+01:00,13932.0291735,-1.202407836914062,0.2188262939453125,0.0055999755859375
2023-11-22T21:54:44.523+01:00,13932.0491115,-1.247756958007812,0.1996612548828125,0.027008056640625
2023-11-22T21:54:44.543+01:00,13932.069048875,-1.186904907226562,0.1859893798828125,0.0668792724609375
2023-11-22T21:54:44.563+01:00,13932.088985875,-1.079177856445312,0.20458984375,0.0659942626953125
2023-11-22T21:54:44.583+01:00,13932.108923875,-1.010452270507812,0.252593994140625,0.048065185546875
2023-11-22T21:54:44.603+01:00,13932.128860875,-0.938720703125,0.266632080078125,-0.01361083984375
2023-11-22T21:54:44.623+01:00,13932.148797875,-0.8363494873046875,0.1319427490234375,-0.0340576171875
2023-11-22T21:54:44.643+01:00,13932.168735875,-0.7804412841796875,0.0747222900390625,0.000457763671875
2023-11-22T21:54:44.663+01:00,13932.188672875,-0.7299041748046875,0.1286163330078125,0.0307464599609375
2023-11-22T21:54:44.683+01:00,13932.208609875,-0.6956787109375,0.2236785888671875,-0.0292205810546875
2023-11-22T21:54:44.703+01:00,13932.228547875,-0.64654541015625,0.277099609375,-0.052032470703125
2023-11-22T21:54:44.723+01:00,13932.248484875,-0.6164398193359375,0.2806854248046875,-0.0710296630859375
2023-11-22T21:54:44.743+01:00,13932.268421875,-0.631072998046875,0.2546844482421875,-0.0446014404296875
2023-11-22T21:54:44.763+01:00,13932.288358875,-0.6499786376953125,0.2515411376953125,-0.057464599609375
2023-11-22T21:54:44.783+01:00,13932.308296875,-0.691009521484375,0.267120361328125,-0.0796661376953125
2023-11-22T21:54:44.802+01:00,13932.328233875,-0.76763916015625,0.2840576171875,-0.1023406982421875
2023-11-22T21:54:44.822+01:00,13932.348170875,-0.8328399658203125,0.3095855712890625,-0.1349029541015625
2023-11-22T21:54:44.842+01:00,13932.368108875,-0.8720855712890625,0.294189453125,-0.1651611328125
2023-11-22T21:54:44.862+01:00,13932.388045875,-0.916534423828125,0.2938690185546875,-0.20098876953125
2023-11-22T21:54:44.882+01:00,13932.407982875,-1.00262451171875,0.357421875,-0.259735107421875
2023-11-22T21:54:44.902+01:00,13932.427920875,-1.076034545898438,0.394744873046875,-0.2724761962890625
2023-11-22T21:54:44.922+01:00,13932.447857875,-1.048797607421875,0.36175537109375,-0.248626708984375
2023-11-22T21:54:44.942+01:00,13932.467794875,-1.011077880859375,0.3438568115234375,-0.229949951171875
2023-11-22T21:54:44.962+01:00,13932.487732875,-0.981048583984375,0.34161376953125,-0.22821044921875
2023-11-22T21:54:44.982+01:00,13932.507669875,-0.9382171630859375,0.3693695068359375,-0.2416229248046875
2023-11-22T21:54:45.002+01:00,13932.527606875,-0.909759521484375,0.3934173583984375,-0.2394256591796875
2023-11-22T21:54:45.022+01:00,13932.547544875,-0.9144744873046875,0.3731689453125,-0.2201080322265625
2023-11-22T21:54:45.042+01:00,13932.567481875,-0.918487548828125,0.3478240966796875,-0.2110137939453125
2023-11-22T21:54:45.062+01:00,13932.587418875,-0.920166015625,0.3489837646484375,-0.200927734375
2023-11-22T21:54:45.082+01:00,13932.607356875,-0.937286376953125,0.330474853515625,-0.194610595703125
2023-11-22T21:54:45.101+01:00,13932.627293875,-0.9709320068359375,0.3445587158203125,-0.2007598876953125
2023-11-22T21:54:45.121+01:00,13932.647230875,-0.995330810546875,0.3479156494140625,-0.2230224609375
2023-11-22T21:54:45.141+01:00,13932.667168875,-0.9908294677734375,0.3417205810546875,-0.2440185546875
2023-11-22T21:54:45.161+01:00,13932.687105875,-0.9837493896484375,0.328125,-0.2461700439453125
2023-11-22T21:54:45.181+01:00,13932.707042875,-0.9716339111328125,0.3010101318359375,-0.243194580078125
2023-11-22T21:54:45.201+01:00,13932.726980875,-0.9474334716796875,0.301971435546875,-0.240966796875
2023-11-22T21:54:45.221+01:00,13932.746917875,-0.9253082275390625,0.3312530517578125,-0.26751708984375
2023-11-22T21:54:45.241+01:00,13932.766854875,-0.8907012939453125,0.3639373779296875,-0.294586181640625
2023-11-22T21:54:45.261+01:00,13932.786791875,-0.86077880859375,0.3730010986328125,-0.3098602294921875
2023-11-22T21:54:45.281+01:00,13932.806729875,-0.8407745361328125,0.3695831298828125,-0.322540283203125
2023-11-22T21:54:45.301+01:00,13932.826666875,-0.8677215576171875,0.357330322265625,-0.32598876953125
2023-11-22T21:54:45.321+01:00,13932.846603875,-0.9036712646484375,0.35650634765625,-0.317657470703125
2023-11-22T21:54:45.341+01:00,13932.866541875,-0.8923492431640625,0.3448333740234375,-0.292724609375
2023-11-22T21:54:45.361+01:00,13932.886478875,-0.874176025390625,0.327911376953125,-0.2765655517578125
2023-11-22T21:54:45.381+01:00,13932.906415875,-0.8630218505859375,0.319305419921875,-0.259002685546875
2023-11-22T21:54:45.401+01:00,13932.926353875,-0.85284423828125,0.2963104248046875,-0.2374420166015625
2023-11-22T21:54:45.420+01:00,13932.946290875,-0.8541259765625,0.291351318359375,-0.2222137451171875
2023-11-22T21:54:45.440+01:00,13932.966227875,-0.87493896484375,0.28485107421875,-0.2017059326171875
2023-11-22T21:54:45.460+01:00,13932.986165875,-0.8707275390625,0.2816925048828125,-0.1782684326171875
2023-11-22T21:54:45.480+01:00,13933.006102875,-0.861358642578125,0.2836151123046875,-0.1694793701171875
2023-11-22T21:54:45.500+01:00,13933.026039875,-0.8441619873046875,0.2864532470703125,-0.1783447265625
2023-11-22T21:54:45.520+01:00,13933.045977875,-0.834320068359375,0.2803497314453125,-0.202728271484375
2023-11-22T21:54:45.540+01:00,13933.065915125,-0.839385986328125,0.283843994140625,-0.27642822265625
2023-11-22T21:54:45.560+01:00,13933.085852125,-0.8260040283203125,0.3074493408203125,-0.4038238525390625
2023-11-22T21:54:45.580+01:00,13933.105790125,-0.844879150390625,0.3118896484375,-0.506622314453125
2023-11-22T21:54:45.600+01:00,13933.125727125,-0.8905487060546875,0.2872467041015625,-0.5592803955078125
2023-11-22T21:54:45.620+01:00,13933.145664125,-0.9097137451171875,0.2784271240234375,-0.6239013671875
2023-11-22T21:54:45.640+01:00,13933.165601125,-0.93475341796875,0.2357635498046875,-0.68463134765625
2023-11-22T21:54:45.660+01:00,13933.185539125,-0.970672607421875,0.1946868896484375,-0.723541259765625
2023-11-22T21:54:45.680+01:00,13933.205476125,-0.9853057861328125,0.17742919921875,-0.7582550048828125
2023-11-22T21:54:45.700+01:00,13933.225413125,-0.9620361328125,0.3037109375,-0.767364501953125
2023-11-22T21:54:45.720+01:00,13933.245351125,-0.91375732421875,0.37347412109375,-0.725799560546875
2023-11-22T21:54:45.740+01:00,13933.265288125,-0.8872222900390625,0.43145751953125,-0.69488525390625
2023-11-22T21:54:45.759+01:00,13933.285225125,-0.8628082275390625,0.4543304443359375,-0.7073516845703125
2023-11-22T21:54:45.779+01:00,13933.305163125,-0.819793701171875,0.3730926513671875,-0.684906005859375
2023-11-22T21:54:45.799+01:00,13933.325100125,-0.812713623046875,0.31402587890625,-0.5706634521484375
2023-11-22T21:54:45.819+01:00,13933.345037125,-0.837677001953125,0.246337890625,-0.5085906982421875
2023-11-22T21:54:45.839+01:00,13933.364975125,-0.7799835205078125,0.13897705078125,-0.637847900390625
2023-11-22T21:54:45.859+01:00,13933.384912125,-0.7737274169921875,0.0221405029296875,-0.657562255859375
2023-11-22T21:54:45.879+01:00,13933.404849125,-0.7262420654296875,-0.0717315673828125,-0.658905029296875
2023-11-22T21:54:45.899+01:00,13933.424787125,-0.7011260986328125,0.012969970703125,-0.68609619140625
2023-11-22T21:54:45.919+01:00,13933.444724125,-0.6552734375,0.178863525390625,-0.6922454833984375
2023-11-22T21:54:45.939+01:00,13933.464661125,-0.690185546875,0.3001708984375,-0.678436279296875
2023-11-22T21:54:45.959+01:00,13933.484599125,-0.73370361328125,0.3017730712890625,-0.6475830078125
2023-11-22T21:54:45.981+01:00,13933.504536125,-0.7947998046875,0.2574005126953125,-0.6142578125
2023-11-22T21:54:45.999+01:00,13933.524473125,-0.848541259765625,0.26824951171875,-0.5688323974609375
2023-11-22T21:54:46.019+01:00,13933.544411125,-0.898681640625,0.2606048583984375,-0.5083160400390625
2023-11-22T21:54:46.038+01:00,13933.564348125,-0.947998046875,0.2847900390625,-0.4394378662109375
2023-11-22T21:54:46.058+01:00,13933.584285125,-1.002197265625,0.39324951171875,-0.4100341796875
2023-11-22T21:54:46.078+01:00,13933.604222125,-0.9501953125,0.406280517578125,-0.39605712890625
2023-11-22T21:54:46.098+01:00,13933.624160125,-0.8541107177734375,0.3224334716796875,-0.3203582763671875
2023-11-22T21:54:46.118+01:00,13933.644097125,-0.796630859375,0.29779052734375,-0.3200531005859375
2023-11-22T21:54:46.138+01:00,13933.664034125,-0.773712158203125,0.447418212890625,-0.327911376953125
2023-11-22T21:54:46.158+01:00,13933.683972125,-0.743560791015625,0.4343414306640625,-0.31707763671875
2023-11-22T21:54:46.178+01:00,13933.703909125,-0.7559356689453125,0.2991790771484375,-0.2839202880859375
2023-11-22T21:54:46.198+01:00,13933.723846125,-0.844940185546875,0.30963134765625,-0.2957305908203125
2023-11-22T21:54:46.218+01:00,13933.743784125,-0.9361419677734375,0.361846923828125,-0.35394287109375
2023-11-22T21:54:46.238+01:00,13933.763721125,-1.010162353515625,0.3795623779296875,-0.3582305908203125
2023-11-22T21:54:46.258+01:00,13933.783658125,-1.079132080078125,0.3288421630859375,-0.2980499267578125
2023-11-22T21:54:46.278+01:00,13933.803596125,-1.091140747070312,0.1870574951171875,-0.2331085205078125
2023-11-22T21:54:46.298+01:00,13933.823533125,-1.07666015625,0.1969451904296875,-0.2384033203125
2023-11-22T21:54:46.318+01:00,13933.843470125,-1.01409912109375,0.1847686767578125,-0.260467529296875
2023-11-22T21:54:46.338+01:00,13933.863407125,-0.9431610107421875,0.18896484375,-0.2995452880859375
2023-11-22T21:54:46.358+01:00,13933.883345125,-0.90869140625,0.216522216796875,-0.2822418212890625
2023-11-22T21:54:46.378+01:00,13933.903282125,-0.8522186279296875,0.24945068359375,-0.270751953125
2023-11-22T21:54:46.397+01:00,13933.923219125,-0.8168487548828125,0.3216400146484375,-0.28436279296875
2023-11-22T21:54:46.417+01:00,13933.943157125,-0.8296966552734375,0.36273193359375,-0.3090057373046875
2023-11-22T21:54:46.437+01:00,13933.963094125,-0.8488311767578125,0.3604278564453125,-0.3299713134765625
2023-11-22T21:54:46.457+01:00,13933.983031125,-0.8682708740234375,0.396881103515625,-0.3410797119140625
2023-11-22T21:54:46.477+01:00,13934.002969125,-0.904815673828125,0.4400787353515625,-0.353057861328125
2023-11-22T21:54:46.497+01:00,13934.022906125,-0.9190673828125,0.4954071044921875,-0.33734130859375
2023-11-22T21:54:46.517+01:00,13934.042843125,-0.8847198486328125,0.5513763427734375,-0.328704833984375
2023-11-22T21:54:46.537+01:00,13934.06278029167,-0.8070831298828125,0.59918212890625,-0.3208465576171875
2023-11-22T21:54:46.557+01:00,13934.08271729167,-0.734222412109375,0.6330718994140625,-0.2857208251953125
2023-11-22T21:54:46.577+01:00,13934.10265429167,-0.6668243408203125,0.667755126953125,-0.2534942626953125
2023-11-22T21:54:46.597+01:00,13934.12259229167,-0.59619140625,0.7464447021484375,-0.2338409423828125
2023-11-22T21:54:46.617+01:00,13934.14252929167,-0.54071044921875,0.795166015625,-0.2051239013671875
2023-11-22T21:54:46.637+01:00,13934.16246629167,-0.513275146484375,0.7704620361328125,-0.190948486328125
2023-11-22T21:54:46.657+01:00,13934.18240329167,-0.48858642578125,0.8151092529296875,-0.21136474609375
2023-11-22T21:54:46.677+01:00,13934.20234129167,-0.4925537109375,0.9091796875,-0.226531982421875
2023-11-22T21:54:46.696+01:00,13934.22227829167,-0.501922607421875,0.908416748046875,-0.229217529296875
2023-11-22T21:54:46.716+01:00,13934.24221529167,-0.52996826171875,0.8719482421875,-0.2258758544921875
2023-11-22T21:54:46.736+01:00,13934.26215329167,-0.563995361328125,0.8914794921875,-0.244964599609375
2023-11-22T21:54:46.756+01:00,13934.28209029167,-0.619476318359375,0.9360198974609375,-0.2606658935546875
2023-11-22T21:54:46.776+01:00,13934.30202729167,-0.6703338623046875,0.8938140869140625,-0.255340576171875
2023-11-22T21:54:46.796+01:00,13934.32196529167,-0.714324951171875,0.856048583984375,-0.2521209716796875
2023-11-22T21:54:46.816+01:00,13934.34190229167,-0.7355194091796875,0.830291748046875,-0.246795654296875
2023-11-22T21:54:46.836+01:00,13934.36183929167,-0.7837066650390625,0.810394287109375,-0.24737548828125
2023-11-22T21:54:46.856+01:00,13934.38177729167,-0.8773193359375,0.8187713623046875,-0.254913330078125
2023-11-22T21:54:46.876+01:00,13934.40171429167,-0.9479827880859375,0.82330322265625,-0.2714080810546875
2023-11-22T21:54:46.896+01:00,13934.42165129167,-0.97308349609375,0.7966766357421875,-0.244903564453125
2023-11-22T21:54:46.916+01:00,13934.44158929167,-0.9484710693359375,0.7352752685546875,-0.1977081298828125
2023-11-22T21:54:46.936+01:00,13934.46152629167,-0.89691162109375,0.6602325439453125,-0.148681640625
2023-11-22T21:54:46.956+01:00,13934.48146329167,-0.8578948974609375,0.667724609375,-0.1197509765625
2023-11-22T21:54:46.976+01:00,13934.50140029167,-0.86138916015625,0.700653076171875,-0.1123504638671875
2023-11-22T21:54:46.996+01:00,13934.52133829167,-0.7833709716796875,0.708648681640625,-0.164337158203125
