loggingTime(txt),accelerometerTimestamp_sinceReboot(s),accelerometerAccelerationX(G),accelerometerAccelerationY(G),accelerometerAccelerationZ(G)
2023-11-29T21:30:05.217+01:00,3517.520592791667,-0.229827880859375,-0.3957366943359375,-0.886199951171875
2023-11-29T21:30:05.234+01:00,3517.540529791667,-0.1941375732421875,-0.405242919921875,-0.8809356689453125
2023-11-29T21:30:05.254+01:00,3517.560467791667,-0.1926116943359375,-0.457000732421875,-0.8561248779296875
2023-11-29T21:30:05.274+01:00,3517.580404791667,-0.2052001953125,-0.456146240234375,-0.8504791259765625
2023-11-29T21:30:05.294+01:00,3517.600341791667,-0.191009521484375,-0.42193603515625,-0.8538665771484375
2023-11-29T21:30:05.314+01:00,3517.620278791667,-0.1883544921875,-0.425079345703125,-0.850860595703125
2023-11-29T21:30:05.334+01:00,3517.640215791667,-0.1919403076171875,-0.4404754638671875,-0.8494110107421875
2023-11-29T21:30:05.354+01:00,3517.660152791667,-0.19952392578125,-0.4393463134765625,-0.85479736328125
2023-11-29T21:30:05.374+01:00,3517.680089791667,-0.188201904296875,-0.4405670166015625,-0.8630218505859375
2023-11-29T21:30:05.394+01:00,3517.700026791667,-0.1907958984375,-0.441558837890625,-0.8700408935546875
2023-11-29T21:30:05.414+01:00,3517.719963791667,-0.2015838623046875,-0.44537353515625,-0.8769073486328125
2023-11-29T21:30:05.434+01:00,3517.739900791667,-0.2058868408203125,-0.432830810546875,-0.8880462646484375
2023-11-29T21:30:05.454+01:00,3517.759838791667,-0.209747314453125,-0.40460205078125,-0.8955078125
2023-11-29T21:30:05.473+01:00,3517.779775791667,-0.2030792236328125,-0.382568359375,-0.9009552001953125
2023-11-29T21:30:05.493+01:00,3517.799712791667,-0.2099609375,-0.3966522216796875,-0.899505615234375
2023-11-29T21:30:05.513+01:00,3517.819649791667,-0.20843505859375,-0.405242919921875,-0.8921966552734375
2023-11-29T21:30:05.542+01:00,3517.839586791667,-0.202178955078125,-0.3880157470703125,-0.899139404296875
2023-11-29T21:30:05.554+01:00,3517.859523791667,-0.1926422119140625,-0.3549957275390625,-0.8993682861328125
2023-11-29T21:30:05.573+01:00,3517.879460791667,-0.19036865234375,-0.3681488037109375,-0.8961029052734375
2023-11-29T21:30:05.593+01:00,3517.899397791667,-0.18865966796875,-0.3749542236328125,-0.8964385986328125
2023-11-29T21:30:05.613+01:00,3517.919334791667,-0.1845245361328125,-0.37896728515625,-0.905914306640625
2023-11-29T21:30:05.633+01:00,3517.939272791667,-0.1842193603515625,-0.368560791015625,-0.911376953125
2023-11-29T21:30:05.653+01:00,3517.959209791667,-0.1880950927734375,-0.36993408203125,-0.914703369140625
2023-11-29T21:30:05.673+01:00,3517.979146791667,-0.16162109375,-0.37554931640625,-0.9190216064453125
2023-11-29T21:30:05.693+01:00,3517.999083791667,-0.1679840087890625,-0.384521484375,-0.9215087890625
2023-11-29T21:30:05.712+01:00,3518.019020791667,-0.1841888427734375,-0.3884735107421875,-0.941864013671875
2023-11-29T21:30:05.732+01:00,3518.038957791667,-0.1774749755859375,-0.3778076171875,-0.94305419921875
2023-11-29T21:30:05.752+01:00,3518.058894791667,-0.1764984130859375,-0.350067138671875,-0.9447479248046875
2023-11-29T21:30:05.772+01:00,3518.078831791667,-0.16998291015625,-0.3491058349609375,-0.952301025390625
2023-11-29T21:30:05.792+01:00,3518.098769791667,-0.16302490234375,-0.3649749755859375,-0.9447479248046875
2023-11-29T21:30:05.812+01:00,3518.118706791667,-0.155181884765625,-0.35430908203125,-0.93499755859375
2023-11-29T21:30:05.832+01:00,3518.138643791667,-0.157012939453125,-0.353271484375,-0.9280548095703125
2023-11-29T21:30:05.852+01:00,3518.158580791667,-0.170166015625,-0.36065673828125,-0.912384033203125
2023-11-29T21:30:05.872+01:00,3518.178517791667,-0.259429931640625,-0.364654541015625,-0.856109619140625
2023-11-29T21:30:05.892+01:00,3518.198454791667,-0.32684326171875,-0.425933837890625,-0.8051910400390625
2023-11-29T21:30:05.912+01:00,3518.218391791667,-0.38323974609375,-0.335723876953125,-0.695831298828125
2023-11-29T21:30:05.932+01:00,3518.238329791667,-0.534271240234375,-0.3740386962890625,-0.592132568359375
2023-11-29T21:30:05.952+01:00,3518.258266791667,-0.6152801513671875,-0.3985595703125,-0.5110931396484375
2023-11-29T21:30:05.972+01:00,3518.278203791667,-0.6406402587890625,-0.3802032470703125,-0.413177490234375
2023-11-29T21:30:05.992+01:00,3518.298140791667,-0.6506805419921875,-0.345947265625,-0.3161163330078125
2023-11-29T21:30:06.011+01:00,3518.318077791667,-0.643951416015625,-0.2913665771484375,-0.2442779541015625
2023-11-29T21:30:06.039+01:00,3518.338014791667,-0.566986083984375,-0.207733154296875,-0.1056365966796875
2023-11-29T21:30:06.052+01:00,3518.357951791667,-0.573974609375,-0.0003662109375,-0.1762237548828125
2023-11-29T21:30:06.072+01:00,3518.377889791667,-0.53656005859375,0.1043243408203125,-0.197113037109375
2023-11-29T21:30:06.091+01:00,3518.397826791667,-0.5260009765625,0.658599853515625,-0.2791748046875
2023-11-29T21:30:06.111+01:00,3518.417763791667,-0.5452117919921875,1.267974853515625,-0.4234771728515625
2023-11-29T21:30:06.131+01:00,3518.437700791667,-0.4091949462890625,0.877471923828125,-0.7920989990234375
2023-11-29T21:30:06.151+01:00,3518.457637791667,-0.3031158447265625,0.8316650390625,-0.83526611328125
2023-11-29T21:30:06.171+01:00,3518.477574791667,-0.43194580078125,0.810791015625,-0.9373321533203125
2023-11-29T21:30:06.191+01:00,3518.497511791667,-0.3963775634765625,0.8000640869140625,-0.9696044921875
2023-11-29T21:30:06.211+01:00,3518.517449625,-0.364044189453125,1.155853271484375,-1.01141357421875
2023-11-29T21:30:06.231+01:00,3518.537386625,-0.1871185302734375,1.22454833984375,-1.015411376953125
2023-11-29T21:30:06.252+01:00,3518.557323625,-0.1655120849609375,1.349945068359375,-0.9840087890625
2023-11-29T21:30:06.271+01:00,3518.577260625,-0.1545867919921875,1.176925659179688,-1.006637573242188
2023-11-29T21:30:06.290+01:00,3518.597197625,-0.1236572265625,1.166549682617188,-0.9094390869140625
2023-11-29T21:30:06.311+01:00,3518.617134625,-0.192840576171875,1.2298583984375,-0.8886871337890625
2023-11-29T21:30:06.330+01:00,3518.637072625,-0.1978302001953125,1.188858032226562,-0.8800506591796875
2023-11-29T21:30:06.351+01:00,3518.657009625,-0.2168121337890625,1.156082153320312,-0.880706787109375
2023-11-29T21:30:06.371+01:00,3518.676946625,-0.2228851318359375,1.098251342773438,-0.960906982421875
2023-11-29T21:30:06.395+01:00,3518.696883625,-0.2415313720703125,1.050628662109375,-1.0098876953125
2023-11-29T21:30:06.416+01:00,3518.716820625,-0.29022216796875,1.03082275390625,-0.9438934326171875
2023-11-29T21:30:06.430+01:00,3518.736757625,-0.321807861328125,1.011032104492188,-0.8788604736328125
2023-11-29T21:30:06.450+01:00,3518.756694625,-0.3551788330078125,1.080078125,-0.8588104248046875
2023-11-29T21:30:06.470+01:00,3518.776632625,-0.43994140625,1.093521118164062,-0.883819580078125
2023-11-29T21:30:06.490+01:00,3518.796569625,-0.5246124267578125,1.031280517578125,-0.8690643310546875
2023-11-29T21:30:06.510+01:00,3518.816506625,-0.6265716552734375,0.97772216796875,-0.8294525146484375
2023-11-29T21:30:06.530+01:00,3518.836443625,-0.7617034912109375,0.9673309326171875,-0.7822723388671875
2023-11-29T21:30:06.550+01:00,3518.856380625,-0.8846893310546875,0.9318389892578125,-0.7442474365234375
2023-11-29T21:30:06.570+01:00,3518.876318625,-0.9370269775390625,0.921844482421875,-0.687469482421875
2023-11-29T21:30:06.590+01:00,3518.896255625,-0.91815185546875,0.927337646484375,-0.631134033203125
2023-11-29T21:30:06.610+01:00,3518.916192625,-0.8790435791015625,0.89202880859375,-0.6064453125
2023-11-29T21:30:06.630+01:00,3518.936129625,-0.8103790283203125,0.8553619384765625,-0.5615234375
2023-11-29T21:30:06.650+01:00,3518.956066625,-0.72467041015625,0.7899932861328125,-0.548675537109375
2023-11-29T21:30:06.669+01:00,3518.976003625,-0.6376953125,0.7517547607421875,-0.519256591796875
2023-11-29T21:30:06.690+01:00,3518.995941625,-0.5485687255859375,0.7136383056640625,-0.4931640625
2023-11-29T21:30:06.709+01:00,3519.015878625,-0.4759674072265625,0.6557159423828125,-0.4615478515625
2023-11-29T21:30:06.729+01:00,3519.035815625,-0.4178009033203125,0.5914459228515625,-0.417083740234375
2023-11-29T21:30:06.749+01:00,3519.055752625,-0.3746185302734375,0.564849853515625,-0.37445068359375
2023-11-29T21:30:06.769+01:00,3519.075689625,-0.3498077392578125,0.547882080078125,-0.3326873779296875
2023-11-29T21:30:06.789+01:00,3519.095626625,-0.3325042724609375,0.53125,-0.298187255859375
2023-11-29T21:30:06.809+01:00,3519.115564625,-0.327117919921875,0.524658203125,-0.2627716064453125
2023-11-29T21:30:06.829+01:00,3519.135501625,-0.340789794921875,0.5409393310546875,-0.2338409423828125
2023-11-29T21:30:06.849+01:00,3519.155438625,-0.3612060546875,0.570404052734375,-0.2197113037109375
2023-11-29T21:30:06.869+01:00,3519.175375625,-0.3934326171875,0.6181640625,-0.2227783203125
2023-11-29T21:30:06.889+01:00,3519.195312625,-0.4345703125,0.66217041015625,-0.2485809326171875
2023-11-29T21:30:06.909+01:00,3519.215250625,-0.4872283935546875,0.703643798828125,-0.252655029296875
2023-11-29T21:30:06.929+01:00,3519.235187625,-0.507354736328125,0.694915771484375,-0.247467041015625
2023-11-29T21:30:06.949+01:00,3519.255124625,-0.5128173828125,0.702789306640625,-0.2539825439453125
2023-11-29T21:30:06.968+01:00,3519.275061625,-0.524505615234375,0.7205657958984375,-0.2725372314453125
2023-11-29T21:30:06.989+01:00,3519.294998625,-0.53118896484375,0.69189453125,-0.262939453125
2023-11-29T21:30:07.008+01:00,3519.314935625,-0.5531768798828125,0.6658782958984375,-0.2702178955078125
2023-11-29T21:30:07.028+01:00,3519.334873625,-0.5770416259765625,0.640380859375,-0.285125732421875
2023-11-29T21:30:07.048+01:00,3519.354810625,-0.6235504150390625,0.671966552734375,-0.3128662109375
2023-11-29T21:30:07.068+01:00,3519.374747625,-0.6628875732421875,0.70111083984375,-0.3320159912109375
2023-11-29T21:30:07.088+01:00,3519.394684625,-0.692474365234375,0.7271881103515625,-0.3459930419921875
2023-11-29T21:30:07.108+01:00,3519.414621625,-0.712615966796875,0.71893310546875,-0.347869873046875
2023-11-29T21:30:07.128+01:00,3519.434559625,-0.7375030517578125,0.7384033203125,-0.3459930419921875
2023-11-29T21:30:07.148+01:00,3519.454496625,-0.791290283203125,0.781402587890625,-0.34161376953125
2023-11-29T21:30:07.168+01:00,3519.474433625,-0.8878936767578125,0.841766357421875,-0.3467254638671875
2023-11-29T21:30:07.188+01:00,3519.494370625,-0.949249267578125,0.8612213134765625,-0.3623504638671875
2023-11-29T21:30:07.208+01:00,3519.514307041667,-0.9039154052734375,0.857513427734375,-0.3452301025390625
2023-11-29T21:30:07.228+01:00,3519.534245041667,-0.782928466796875,0.854400634765625,-0.353668212890625
2023-11-29T21:30:07.248+01:00,3519.554182041667,-0.6756439208984375,0.8921966552734375,-0.370025634765625
2023-11-29T21:30:07.268+01:00,3519.574119041667,-0.5947113037109375,0.882171630859375,-0.4029388427734375
2023-11-29T21:30:07.288+01:00,3519.594056041667,-0.5376129150390625,0.8140106201171875,-0.4482879638671875
2023-11-29T21:30:07.307+01:00,3519.613993041667,-0.5092926025390625,0.7537994384765625,-0.4587554931640625
2023-11-29T21:30:07.327+01:00,3519.633931041667,-0.4877777099609375,0.738616943359375,-0.482452392578125
2023-11-29T21:30:07.347+01:00,3519.653868041667,-0.48065185546875,0.755859375,-0.4805755615234375
2023-11-29T21:30:07.367+01:00,3519.673805041667,-0.47784423828125,0.7761383056640625,-0.4456634521484375
2023-11-29T21:30:07.387+01:00,3519.693742041667,-0.5012969970703125,0.797271728515625,-0.451629638671875
2023-11-29T21:30:07.407+01:00,3519.713680041667,-0.525726318359375,0.832244873046875,-0.4571990966796875
2023-11-29T21:30:07.427+01:00,3519.733617041667,-0.52691650390625,0.84375,-0.476593017578125
2023-11-29T21:30:07.447+01:00,3519.753554041667,-0.5176849365234375,0.833343505859375,-0.4599761962890625
2023-11-29T21:30:07.467+01:00,3519.773491041667,-0.5375518798828125,0.8169403076171875,-0.4395599365234375
2023-11-29T21:30:07.487+01:00,3519.793428041667,-0.5260009765625,0.852447509765625,-0.434783935546875
2023-11-29T21:30:07.507+01:00,3519.813366041667,-0.4888763427734375,0.846954345703125,-0.467071533203125
2023-11-29T21:30:07.527+01:00,3519.833303041667,-0.460052490234375,0.832183837890625,-0.4846649169921875
2023-11-29T21:30:07.547+01:00,3519.853240041667,-0.4629974365234375,0.9068756103515625,-0.5223236083984375
2023-11-29T21:30:07.567+01:00,3519.873177041667,-0.44970703125,1.079254150390625,-0.5069427490234375
2023-11-29T21:30:07.587+01:00,3519.893114041667,-0.3964691162109375,0.9915008544921875,-0.48138427734375
2023-11-29T21:30:07.606+01:00,3519.913052041667,-0.4006500244140625,0.954132080078125,-0.6115875244140625
2023-11-29T21:30:07.626+01:00,3519.932989041667,-0.33380126953125,0.9553680419921875,-0.74737548828125
2023-11-29T21:30:07.646+01:00,3519.952926041667,-0.25665283203125,0.978302001953125,-0.839324951171875
2023-11-29T21:30:07.666+01:00,3519.972863041667,-0.21075439453125,0.879852294921875,-0.88531494140625
2023-11-29T21:30:07.686+01:00,3519.992801041667,-0.2360687255859375,0.814453125,-0.90618896484375
2023-11-29T21:30:07.706+01:00,3520.012738041667,-0.240020751953125,1.053726196289062,-1.039962768554688
2023-11-29T21:30:07.726+01:00,3520.032675041667,-0.3044281005859375,1.326522827148438,-1.195083618164062
2023-11-29T21:30:07.746+01:00,3520.052612041667,-0.3472900390625,1.340438842773438,-1.334732055664062
2023-11-29T21:30:07.766+01:00,3520.072549041667,-0.1968994140625,1.330780029296875,-1.341064453125
2023-11-29T21:30:07.786+01:00,3520.092487041667,-0.029876708984375,1.327590942382812,-1.420211791992188
2023-11-29T21:30:07.809+01:00,3520.112424041667,0.014495849609375,1.279998779296875,-1.507064819335938
2023-11-29T21:30:07.826+01:00,3520.132361041667,0.1630096435546875,1.153610229492188,-1.667449951171875
2023-11-29T21:30:07.846+01:00,3520.152298041667,0.412139892578125,1.073455810546875,-1.795364379882812
2023-11-29T21:30:07.866+01:00,3520.172236041667,0.8124542236328125,1.204116821289062,-2.06024169921875
2023-11-29T21:30:07.886+01:00,3520.192173041667,0.856781005859375,1.479034423828125,-2.394866943359375
2023-11-29T21:30:07.906+01:00,3520.212110041667,0.5462188720703125,1.959091186523438,-2.443466186523438
2023-11-29T21:30:07.925+01:00,3520.232047041667,0.1352996826171875,2.293487548828125,-2.0435791015625
2023-11-29T21:30:07.945+01:00,3520.251984041667,-0.187164306640625,2.45904541015625,-1.44378662109375
2023-11-29T21:30:07.965+01:00,3520.271922041667,-0.4330596923828125,2.088531494140625,-0.8497467041015625
2023-11-29T21:30:07.985+01:00,3520.291859041667,-0.4282684326171875,1.436309814453125,-0.236602783203125
2023-11-29T21:30:08.005+01:00,3520.311796041667,-0.3682861328125,0.8993072509765625,0.26824951171875
2023-11-29T21:30:08.025+01:00,3520.331733041667,-0.438720703125,0.3949127197265625,0.4854736328125
2023-11-29T21:30:08.045+01:00,3520.351671041667,-0.5189056396484375,-0.1617584228515625,0.6775054931640625
2023-11-29T21:30:08.065+01:00,3520.371608041667,-0.58172607421875,-0.5160675048828125,0.65234375
2023-11-29T21:30:08.085+01:00,3520.391545041667,-0.61956787109375,-0.5095672607421875,0.7270050048828125
2023-11-29T21:30:08.105+01:00,3520.411482041667,-0.649322509765625,-0.5035858154296875,0.729217529296875
2023-11-29T21:30:08.125+01:00,3520.431420041667,-0.69921875,-0.4237213134765625,0.5917510986328125
2023-11-29T21:30:08.145+01:00,3520.451357041667,-0.7344207763671875,-0.4951019287109375,0.62017822265625
2023-11-29T21:30:08.165+01:00,3520.471294041667,-0.725830078125,-0.67254638671875,0.652679443359375
2023-11-29T21:30:08.185+01:00,3520.491231041667,-0.7161865234375,-0.60577392578125,0.7027435302734375
2023-11-29T21:30:08.205+01:00,3520.511167875,-0.6067352294921875,-0.6560211181640625,0.82379150390625
2023-11-29T21:30:08.225+01:00,3520.531105875,-0.3978271484375,-0.9337921142578125,0.9768218994140625
2023-11-29T21:30:08.245+01:00,3520.551042875,-0.1862945556640625,-1.22430419921875,1.210556030273438
2023-11-29T21:30:08.264+01:00,3520.570979875,-0.586029052734375,-1.518264770507812,2.098495483398438
2023-11-29T21:30:08.284+01:00,3520.590916875,-1.547210693359375,-1.76983642578125,3.047454833984375
2023-11-29T21:30:08.304+01:00,3520.610854875,-2.819992065429688,-1.00634765625,3.228134155273438
2023-11-29T21:30:08.324+01:00,3520.630791875,-4.468612670898438,0.4431304931640625,2.395294189453125
2023-11-29T21:30:08.344+01:00,3520.650728875,-5.856781005859375,1.980667114257812,-2.086929321289062
2023-11-29T21:30:08.364+01:00,3520.670665875,-4.415771484375,0.7224884033203125,-2.63494873046875
2023-11-29T21:30:08.384+01:00,3520.690603875,-4.157546997070312,0.88507080078125,-2.896408081054688
2023-11-29T21:30:08.404+01:00,3520.710540875,-3.6290283203125,0.67645263671875,-2.39593505859375
2023-11-29T21:30:08.424+01:00,3520.730477875,-3.573257446289062,1.081207275390625,-2.522872924804688
2023-11-29T21:30:08.444+01:00,3520.750414875,-2.873306274414062,1.475570678710938,-2.868240356445312
2023-11-29T21:30:08.464+01:00,3520.770352875,-2.785263061523438,1.60968017578125,-2.743316650390625
2023-11-29T21:30:08.484+01:00,3520.790289875,-2.636474609375,1.349288940429688,-2.783065795898438
2023-11-29T21:30:08.504+01:00,3520.810226875,-2.630661010742188,1.37481689453125,-2.70367431640625
2023-11-29T21:30:08.524+01:00,3520.830163875,-2.072280883789062,1.471755981445312,-2.716278076171875
2023-11-29T21:30:08.544+01:00,3520.850101875,-1.296051025390625,1.572433471679688,-2.478836059570312
2023-11-29T21:30:08.563+01:00,3520.870038875,-0.926513671875,1.358535766601562,-2.363555908203125
2023-11-29T21:30:08.583+01:00,3520.889975875,-0.8987579345703125,0.9854888916015625,-1.9046630859375
2023-11-29T21:30:08.603+01:00,3520.909912875,-0.845184326171875,0.78448486328125,-1.415176391601562
2023-11-29T21:30:08.623+01:00,3520.929850875,-0.7699737548828125,0.68017578125,-0.9710235595703125
2023-11-29T21:30:08.643+01:00,3520.949787875,-0.728912353515625,0.57666015625,-0.610443115234375
2023-11-29T21:30:08.663+01:00,3520.969724875,-0.7055511474609375,0.550201416015625,-0.4380950927734375
2023-11-29T21:30:08.683+01:00,3520.989661875,-0.6626129150390625,0.5588531494140625,-0.31060791015625
2023-11-29T21:30:08.703+01:00,3521.009599875,-0.687164306640625,0.4911346435546875,-0.261383056640625
2023-11-29T21:30:08.723+01:00,3521.029536875,-0.6841583251953125,0.524871826171875,-0.2368011474609375
2023-11-29T21:30:08.743+01:00,3521.049473875,-0.7105865478515625,0.4849090576171875,-0.2420806884765625
2023-11-29T21:30:08.763+01:00,3521.069410875,-0.6947021484375,0.4552459716796875,-0.22930908203125
2023-11-29T21:30:08.783+01:00,3521.089348875,-0.75048828125,0.3977813720703125,-0.249176025390625
2023-11-29T21:30:08.803+01:00,3521.109285875,-1.003219604492188,0.40863037109375,-0.3374481201171875
2023-11-29T21:30:08.823+01:00,3521.129222875,-1.269821166992188,0.417449951171875,-0.226470947265625
2023-11-29T21:30:08.843+01:00,3521.149159875,-1.28485107421875,0.438873291015625,-0.096527099609375
2023-11-29T21:30:08.863+01:00,3521.169097875,-1.174819946289062,0.4563446044921875,-0.182861328125
2023-11-29T21:30:08.883+01:00,3521.189034875,-1.245468139648438,0.64508056640625,-0.24481201171875
2023-11-29T21:30:08.903+01:00,3521.208971875,-1.552581787109375,0.7266387939453125,-0.2209930419921875
2023-11-29T21:30:08.922+01:00,3521.228908875,-1.9520263671875,0.60791015625,-0.1371002197265625
2023-11-29T21:30:08.942+01:00,3521.248846875,-2.177932739257812,0.53009033203125,-0.0385284423828125
2023-11-29T21:30:08.962+01:00,3521.268783875,-2.000411987304688,0.38677978515625,0.0839080810546875
2023-11-29T21:30:08.982+01:00,3521.288720875,-1.746505737304688,0.2923583984375,0.07794189453125
2023-11-29T21:30:09.002+01:00,3521.308657875,-1.565185546875,0.230377197265625,0.0454254150390625
2023-11-29T21:30:09.022+01:00,3521.328595875,-1.355209350585938,0.1794586181640625,-0.0591888427734375
2023-11-29T21:30:09.042+01:00,3521.348532875,-1.097015380859375,0.07501220703125,-0.0908966064453125
2023-11-29T21:30:09.062+01:00,3521.368469875,-0.7921142578125,0.0158233642578125,-0.0507354736328125
2023-11-29T21:30:09.082+01:00,3521.388406875,-0.4803314208984375,-0.088287353515625,-0.0517578125
2023-11-29T21:30:09.102+01:00,3521.408344875,-0.203857421875,-0.076904296875,-0.103912353515625
2023-11-29T21:30:09.122+01:00,3521.428281875,0.0308074951171875,0.013824462890625,-0.127349853515625
2023-11-29T21:30:09.142+01:00,3521.448218875,0.1498565673828125,0.1088409423828125,-0.1668853759765625
2023-11-29T21:30:09.163+01:00,3521.468155875,0.2637786865234375,0.0594482421875,-0.232940673828125
2023-11-29T21:30:09.182+01:00,3521.488093875,0.4010772705078125,0.0582427978515625,-0.2940673828125
2023-11-29T21:30:09.201+01:00,3521.508030875,0.555816650390625,0.1351165771484375,-0.3565826416015625
2023-11-29T21:30:09.221+01:00,3521.527967875,0.5652008056640625,0.3096923828125,-0.4380645751953125
2023-11-29T21:30:09.241+01:00,3521.547905875,0.5072174072265625,0.4740447998046875,-0.4166107177734375
2023-11-29T21:30:09.261+01:00,3521.567842875,0.5738067626953125,0.573974609375,-0.4815216064453125
2023-11-29T21:30:09.281+01:00,3521.587779875,0.5252227783203125,0.8801727294921875,-0.478668212890625
2023-11-29T21:30:09.301+01:00,3521.607716875,0.2688751220703125,0.954345703125,-0.586761474609375
2023-11-29T21:30:09.321+01:00,3521.627654875,0.0354461669921875,1.504959106445312,-0.5851898193359375
2023-11-29T21:30:09.341+01:00,3521.647591875,-0.055389404296875,1.898284912109375,-0.4888458251953125
2023-11-29T21:30:09.361+01:00,3521.667528875,0.0915069580078125,2.009429931640625,-0.323822021484375
2023-11-29T21:30:09.381+01:00,3521.687465875,-0.0444183349609375,1.62725830078125,-0.164764404296875
2023-11-29T21:30:09.401+01:00,3521.707403875,-0.365570068359375,1.181671142578125,-0.2751617431640625
2023-11-29T21:30:09.421+01:00,3521.727340875,-0.7454833984375,1.012283325195312,-0.39398193359375
2023-11-29T21:30:09.441+01:00,3521.747277875,-1.079452514648438,0.94091796875,-0.4812469482421875
2023-11-29T21:30:09.461+01:00,3521.767214875,-1.334503173828125,0.9309234619140625,-0.3361053466796875
2023-11-29T21:30:09.481+01:00,3521.787152875,-1.484024047851562,1.0023193359375,-0.1531219482421875
2023-11-29T21:30:09.501+01:00,3521.807089875,-1.491943359375,0.9694061279296875,-0.1272735595703125
2023-11-29T21:30:09.520+01:00,3521.827026875,-1.331207275390625,1.027389526367188,-0.1192474365234375
2023-11-29T21:30:09.540+01:00,3521.846963875,-1.078643798828125,0.8228302001953125,-0.0181732177734375
2023-11-29T21:30:09.561+01:00,3521.866901875,-1.024505615234375,0.54779052734375,0.099853515625
2023-11-29T21:30:09.580+01:00,3521.886838875,-0.856170654296875,0.31787109375,0.149322509765625
2023-11-29T21:30:09.600+01:00,3521.906775875,-0.68145751953125,0.39892578125,0.122039794921875
2023-11-29T21:30:09.620+01:00,3521.926712875,-0.736083984375,0.422393798828125,0.06048583984375
2023-11-29T21:30:09.640+01:00,3521.946650875,-0.905059814453125,0.2779693603515625,-0.022796630859375
2023-11-29T21:30:09.660+01:00,3521.966587875,-1.331268310546875,0.31536865234375,-0.2738494873046875
2023-11-29T21:30:09.680+01:00,3521.986524875,-1.940658569335938,0.384796142578125,-0.10589599609375
2023-11-29T21:30:09.700+01:00,3522.006461875,-2.14202880859375,0.0201416015625,0.043060302734375
2023-11-29T21:30:09.720+01:00,3522.026399875,-1.664993286132812,0.027923583984375,-0.24346923828125
2023-11-29T21:30:09.740+01:00,3522.046336875,-1.693466186523438,0.183563232421875,-0.4488983154296875
2023-11-29T21:30:09.760+01:00,3522.066273875,-1.71759033203125,-0.14794921875,-0.4037017822265625
2023-11-29T21:30:09.780+01:00,3522.086211875,-1.62481689453125,-0.331817626953125,-0.375579833984375
2023-11-29T21:30:09.800+01:00,3522.106148875,-1.675094604492188,-0.165374755859375,-0.51385498046875
2023-11-29T21:30:09.820+01:00,3522.126085875,-1.622512817382812,-0.0269927978515625,-0.6344146728515625
2023-11-29T21:30:09.839+01:00,3522.146022875,-1.644927978515625,-0.0107574462890625,-0.604248046875
2023-11-29T21:30:09.859+01:00,3522.165960875,-1.586349487304688,-0.03729248046875,-0.485687255859375
2023-11-29T21:30:09.879+01:00,3522.185897875,-1.335540771484375,0.06634521484375,-0.4391937255859375
2023-11-29T21:30:09.899+01:00,3522.205834875,-1.130020141601562,0.243133544921875,-0.38812255859375
2023-11-29T21:30:09.919+01:00,3522.225771875,-1.0341796875,0.285552978515625,-0.39971923828125
2023-11-29T21:30:09.939+01:00,3522.245709875,-0.94903564453125,0.3135223388671875,-0.41705322265625
2023-11-29T21:30:09.960+01:00,3522.265646875,-0.8757476806640625,0.3354644775390625,-0.4300689697265625
2023-11-29T21:30:09.979+01:00,3522.285583875,-0.829681396484375,0.333953857421875,-0.401153564453125
2023-11-29T21:30:09.999+01:00,3522.305520875,-0.746307373046875,0.3863372802734375,-0.3805389404296875
2023-11-29T21:30:10.019+01:00,3522.325458875,-0.659912109375,0.42877197265625,-0.386016845703125
2023-11-29T21:30:10.039+01:00,3522.345395875,-0.5898895263671875,0.4266357421875,-0.368682861328125
2023-11-29T21:30:10.059+01:00,3522.365332875,-0.532745361328125,0.351776123046875,-0.3610687255859375
2023-11-29T21:30:10.079+01:00,3522.385269875,-0.49945068359375,0.3659515380859375,-0.347686767578125
2023-11-29T21:30:10.099+01:00,3522.405207875,-0.494140625,0.3715057373046875,-0.3259735107421875
2023-11-29T21:30:10.119+01:00,3522.425144875,-0.5117340087890625,0.3447418212890625,-0.3006134033203125
2023-11-29T21:30:10.138+01:00,3522.445081875,-0.5240936279296875,0.34283447265625,-0.2694549560546875
2023-11-29T21:30:10.158+01:00,3522.465019875,-0.5196380615234375,0.3227691650390625,-0.2304534912109375
2023-11-29T21:30:10.178+01:00,3522.484956875,-0.5289154052734375,0.3345184326171875,-0.226165771484375
2023-11-29T21:30:10.198+01:00,3522.504894125,-0.5578155517578125,0.343536376953125,-0.2153167724609375
2023-11-29T21:30:10.218+01:00,3522.524831125,-0.5644378662109375,0.3028717041015625,-0.2356719970703125
2023-11-29T21:30:10.238+01:00,3522.544769125,-0.5704345703125,0.3351593017578125,-0.2672119140625
2023-11-29T21:30:10.258+01:00,3522.564706125,-0.6087799072265625,0.359344482421875,-0.271697998046875
2023-11-29T21:30:10.278+01:00,3522.584643125,-0.626983642578125,0.3602142333984375,-0.2686614990234375
2023-11-29T21:30:10.298+01:00,3522.604580125,-0.682159423828125,0.39990234375,-0.2693939208984375
2023-11-29T21:30:10.318+01:00,3522.624518125,-0.78533935546875,0.4347076416015625,-0.29400634765625
2023-11-29T21:30:10.338+01:00,3522.644455125,-0.8656158447265625,0.488555908203125,-0.29998779296875
2023-11-29T21:30:10.358+01:00,3522.664392125,-0.949462890625,0.515838623046875,-0.29296875
2023-11-29T21:30:10.378+01:00,3522.684329125,-1.125778198242188,0.5311431884765625,-0.300445556640625
2023-11-29T21:30:10.398+01:00,3522.704267125,-1.35205078125,0.5962982177734375,-0.315887451171875
2023-11-29T21:30:10.418+01:00,3522.724204125,-1.54046630859375,0.6045989990234375,-0.284088134765625
2023-11-29T21:30:10.438+01:00,3522.744141125,-1.541748046875,0.5547332763671875,-0.1602783203125
2023-11-29T21:30:10.458+01:00,3522.764078125,-1.36199951171875,0.4807586669921875,-0.065216064453125
2023-11-29T21:30:10.478+01:00,3522.784016125,-1.195281982421875,0.48724365234375,-0.0252838134765625
2023-11-29T21:30:10.498+01:00,3522.803953125,-1.057083129882812,0.469482421875,-0.0091552734375
2023-11-29T21:30:10.517+01:00,3522.823890125,-0.9421539306640625,0.3765411376953125,-0.012298583984375
2023-11-29T21:30:10.537+01:00,3522.843828125,-0.8171234130859375,0.2970123291015625,-0.016143798828125
2023-11-29T21:30:10.557+01:00,3522.863765125,-0.69830322265625,0.219573974609375,-0.0012969970703125
2023-11-29T21:30:10.577+01:00,3522.883702125,-0.582122802734375,0.1639556884765625,0.00872802734375
2023-11-29T21:30:10.597+01:00,3522.903639125,-0.4946441650390625,0.204315185546875,-0.00921630859375
2023-11-29T21:30:10.617+01:00,3522.923577125,-0.460174560546875,0.21661376953125,-0.0021820068359375
2023-11-29T21:30:10.637+01:00,3522.943514125,-0.421356201171875,0.1663665771484375,0.0101470947265625
2023-11-29T21:30:10.657+01:00,3522.963451125,-0.4063873291015625,0.1546173095703125,-0.0113067626953125
2023-11-29T21:30:10.677+01:00,3522.983388125,-0.4055023193359375,0.1333770751953125,-0.0183258056640625
2023-11-29T21:30:10.697+01:00,3523.003326125,-0.4223785400390625,0.1627349853515625,-0.028411865234375
2023-11-29T21:30:10.717+01:00,3523.023263125,-0.4588470458984375,0.187744140625,-0.0509185791015625
2023-11-29T21:30:10.737+01:00,3523.043200125,-0.517547607421875,0.2259674072265625,-0.0598907470703125
2023-11-29T21:30:10.757+01:00,3523.063137125,-0.6280975341796875,0.2634124755859375,-0.085540771484375
2023-11-29T21:30:10.777+01:00,3523.083075125,-0.8024444580078125,0.3289337158203125,-0.1345977783203125
2023-11-29T21:30:10.797+01:00,3523.103012125,-0.9772491455078125,0.3646087646484375,-0.12799072265625
2023-11-29T21:30:10.816+01:00,3523.122949125,-1.099700927734375,0.3640289306640625,-0.1049041748046875
2023-11-29T21:30:10.836+01:00,3523.142887125,-1.203628540039062,0.310272216796875,-0.0412139892578125
2023-11-29T21:30:10.856+01:00,3523.162824125,-1.253463745117188,0.345123291015625,-0.0018463134765625
2023-11-29T21:30:10.876+01:00,3523.182761125,-1.18658447265625,0.36492919921875,0.0063323974609375
2023-11-29T21:30:10.896+01:00,3523.202698125,-1.09014892578125,0.2578887939453125,-0.0198516845703125
2023-11-29T21:30:10.916+01:00,3523.222636125,-0.9859771728515625,0.306182861328125,0.0508880615234375
2023-11-29T21:30:10.936+01:00,3523.242573125,-0.775421142578125,0.227935791015625,0.0498199462890625
2023-11-29T21:30:10.956+01:00,3523.262510125,-0.692626953125,0.155670166015625,0.049835205078125
2023-11-29T21:30:10.976+01:00,3523.282447125,-0.837890625,0.2313385009765625,-0.0520172119140625
2023-11-29T21:30:10.996+01:00,3523.302385125,-0.9668121337890625,0.25860595703125,-0.1281890869140625
2023-11-29T21:30:11.016+01:00,3523.322322125,-1.069015502929688,0.1624298095703125,-0.131683349609375
2023-11-29T21:30:11.036+01:00,3523.342259125,-1.104080200195312,-0.0694427490234375,-0.0975799560546875
2023-11-29T21:30:11.056+01:00,3523.362196125,-1.132308959960938,-0.126556396484375,-0.054595947265625
2023-11-29T21:30:11.076+01:00,3523.382134125,-1.265609741210938,-0.125244140625,0.001495361328125
2023-11-29T21:30:11.095+01:00,3523.402071125,-1.343505859375,-0.320343017578125,0.1270294189453125
2023-11-29T21:30:11.115+01:00,3523.422008125,-1.318435668945312,-0.37811279296875,0.226470947265625
2023-11-29T21:30:11.135+01:00,3523.441945125,-1.284576416015625,-0.316436767578125,0.2503204345703125
2023-11-29T21:30:11.155+01:00,3523.461883125,-1.360855102539062,-0.2849884033203125,0.2579193115234375
2023-11-29T21:30:11.175+01:00,3523.481820125,-1.413238525390625,-0.3115081787109375,0.2526092529296875
2023-11-29T21:30:11.195+01:00,3523.501757125,-1.46630859375,-0.298370361328125,0.18292236328125
2023-11-29T21:30:11.215+01:00,3523.521695625,-1.544052124023438,-0.2464141845703125,0.1177215576171875
2023-11-29T21:30:11.235+01:00,3523.541632625,-1.616973876953125,-0.257904052734375,0.028076171875
2023-11-29T21:30:11.255+01:00,3523.561569625,-1.590179443359375,-0.2332000732421875,-0.01336669921875
2023-11-29T21:30:11.275+01:00,3523.581506625,-1.471115112304688,-0.2081146240234375,-0.0438232421875
2023-11-29T21:30:11.295+01:00,3523.601444625,-1.369537353515625,-0.1291046142578125,-0.083526611328125
2023-11-29T21:30:11.315+01:00,3523.621381625,-1.317489624023438,-0.029022216796875,-0.10321044921875
2023-11-29T21:30:11.335+01:00,3523.641318625,-1.291900634765625,-0.1243438720703125,-0.101654052734375
2023-11-29T21:30:11.355+01:00,3523.661255625,-1.223419189453125,-0.130462646484375,-0.073455810546875
2023-11-29T21:30:11.375+01:00,3523.681193625,-1.20965576171875,-0.0247650146484375,-0.06494140625
2023-11-29T21:30:11.395+01:00,3523.701130625,-1.172454833984375,0.0054779052734375,-0.018035888671875
2023-11-29T21:30:11.415+01:00,3523.721067625,-1.099777221679688,0.0587921142578125,-0.0287933349609375
2023-11-29T21:30:11.434+01:00,3523.741004625,-1.0389404296875,0.0345611572265625,-0.0047149658203125
2023-11-29T21:30:11.454+01:00,3523.760942625,-0.9781036376953125,0.2100982666015625,-0.028076171875
2023-11-29T21:30:11.474+01:00,3523.780879625,-0.971282958984375,0.2213134765625,0.02618408203125
2023-11-29T21:30:11.494+01:00,3523.800816625,-0.94781494140625,0.3815155029296875,0.056060791015625
2023-11-29T21:30:11.514+01:00,3523.820753625,-0.92108154296875,0.48095703125,0.07470703125
2023-11-29T21:30:11.534+01:00,3523.840691625,-0.861083984375,0.5364227294921875,0.027557373046875
2023-11-29T21:30:11.554+01:00,3523.860628625,-0.7628631591796875,0.639862060546875,-0.0284423828125
2023-11-29T21:30:11.574+01:00,3523.880565625,-0.71368408203125,0.7284698486328125,-0.1502838134765625
2023-11-29T21:30:11.594+01:00,3523.900502625,-0.7580718994140625,0.868377685546875,-0.2713470458984375
2023-11-29T21:30:11.614+01:00,3523.920440625,-0.8542022705078125,0.8727264404296875,-0.485931396484375
2023-11-29T21:30:11.634+01:00,3523.940377625,-0.97998046875,1.08868408203125,-0.58148193359375
2023-11-29T21:30:11.654+01:00,3523.960314625,-1.086181640625,1.15948486328125,-0.6125335693359375
2023-11-29T21:30:11.674+01:00,3523.980252625,-1.186279296875,1.20068359375,-0.658203125
2023-11-29T21:30:11.694+01:00,3524.000189625,-1.30682373046875,1.215179443359375,-0.7250823974609375
2023-11-29T21:30:11.714+01:00,3524.020126625,-1.477676391601562,1.109375,-0.8378143310546875
2023-11-29T21:30:11.733+01:00,3524.040063625,-1.69647216796875,1.154037475585938,-0.8818206787109375
2023-11-29T21:30:11.753+01:00,3524.060001625,-1.883544921875,1.15814208984375,-0.945098876953125
2023-11-29T21:30:11.773+01:00,3524.079938625,-1.957015991210938,1.121124267578125,-0.9115447998046875
2023-11-29T21:30:11.793+01:00,3524.099875625,-1.8499755859375,0.9290313720703125,-0.78277587890625
2023-11-29T21:30:11.813+01:00,3524.119812625,-1.893707275390625,0.8603668212890625,-0.671783447265625
2023-11-29T21:30:11.833+01:00,3524.139750625,-1.850692749023438,0.741058349609375,-0.948577880859375
2023-11-29T21:30:11.853+01:00,3524.159687625,-1.68682861328125,0.4416656494140625,0.243804931640625
2023-11-29T21:30:11.873+01:00,3524.179624625,-1.307891845703125,0.4150238037109375,0.040374755859375
2023-11-29T21:30:11.893+01:00,3524.199561625,-1.199310302734375,0.234588623046875,0.1638336181640625
2023-11-29T21:30:11.913+01:00,3524.219499625,-1.053726196289062,0.412322998046875,0.1755828857421875
2023-11-29T21:30:11.933+01:00,3524.239436625,-0.9044952392578125,0.3137664794921875,0.2885894775390625
2023-11-29T21:30:11.953+01:00,3524.259373625,-0.7253570556640625,0.645538330078125,0.1809539794921875
2023-11-29T21:30:11.973+01:00,3524.279310625,-0.577545166015625,0.9250335693359375,0.115386962890625
2023-11-29T21:30:11.993+01:00,3524.299248625,-0.46990966796875,0.5646820068359375,0.145050048828125
2023-11-29T21:30:12.013+01:00,3524.319185625,-0.325286865234375,0.0616607666015625,0.2175140380859375
2023-11-29T21:30:12.033+01:00,3524.339122625,-0.124176025390625,-0.1642913818359375,0.0623931884765625
2023-11-29T21:30:12.052+01:00,3524.359059625,0.0103759765625,-0.1461334228515625,-0.0211944580078125
2023-11-29T21:30:12.072+01:00,3524.378997625,0.0136871337890625,-0.2027435302734375,0.105438232421875
2023-11-29T21:30:12.092+01:00,3524.398934625,0.152099609375,-0.1969757080078125,-0.073577880859375
2023-11-29T21:30:12.112+01:00,3524.418871625,0.1014251708984375,-0.0757904052734375,-0.1203460693359375
2023-11-29T21:30:12.132+01:00,3524.438808625,0.0885162353515625,-0.1602020263671875,0.039215087890625
2023-11-29T21:30:12.152+01:00,3524.458746625,0.09735107421875,-0.16973876953125,0.084442138671875
2023-11-29T21:30:12.172+01:00,3524.478683625,0.1073455810546875,-0.0090484619140625,0.1579132080078125
2023-11-29T21:30:12.192+01:00,3524.498620625,0.1212005615234375,0.122222900390625,0.2091064453125
2023-11-29T21:30:12.212+01:00,3524.518556291667,0.1181640625,0.344573974609375,0.2020111083984375
2023-11-29T21:30:12.232+01:00,3524.538494291667,0.0710906982421875,0.5332794189453125,0.1168212890625
2023-11-29T21:30:12.252+01:00,3524.558431291667,0.05499267578125,0.701019287109375,0.029876708984375
2023-11-29T21:30:12.272+01:00,3524.578368291667,0.015899658203125,0.6622467041015625,-0.1145782470703125
2023-11-29T21:30:12.292+01:00,3524.598306291667,-0.04107666015625,1.023651123046875,-0.1733856201171875
2023-11-29T21:30:12.312+01:00,3524.618243291667,-0.1875152587890625,1.2652587890625,-0.286346435546875
2023-11-29T21:30:12.332+01:00,3524.638180291667,-0.095977783203125,1.283004760742188,-0.5696868896484375
2023-11-29T21:30:12.352+01:00,3524.658117291667,-0.0953369140625,1.2486572265625,-0.8552093505859375
2023-11-29T21:30:12.372+01:00,3524.678055291667,-0.09857177734375,1.258407592773438,-0.802032470703125
2023-11-29T21:30:12.391+01:00,3524.697992291667,-0.1530609130859375,1.108154296875,-0.6055145263671875
2023-11-29T21:30:12.411+01:00,3524.717929291667,-0.2249298095703125,0.97503662109375,-0.7078094482421875
2023-11-29T21:30:12.431+01:00,3524.737866291667,-0.321990966796875,0.978302001953125,-0.855743408203125
2023-11-29T21:30:12.451+01:00,3524.757804291667,-0.41748046875,0.9367523193359375,-0.841033935546875
2023-11-29T21:30:12.471+01:00,3524.777741291667,-0.4570770263671875,0.831390380859375,-0.82135009765625
2023-11-29T21:30:12.491+01:00,3524.797678291667,-0.5705718994140625,0.9398651123046875,-0.834136962890625
2023-11-29T21:30:12.511+01:00,3524.817615291667,-0.662445068359375,0.927734375,-0.8649749755859375
2023-11-29T21:30:12.531+01:00,3524.837553291667,-0.7613525390625,0.9362030029296875,-0.8807373046875
2023-11-29T21:30:12.551+01:00,3524.857490291667,-0.8539886474609375,0.83441162109375,-0.86639404296875
2023-11-29T21:30:12.571+01:00,3524.877427291667,-0.8685455322265625,0.8048095703125,-0.907379150390625
2023-11-29T21:30:12.591+01:00,3524.897364291667,-0.95941162109375,0.7458343505859375,-0.8993377685546875
2023-11-29T21:30:12.611+01:00,3524.917302291667,-1.012298583984375,0.6129302978515625,-0.8869171142578125
2023-11-29T21:30:12.631+01:00,3524.937239291667,-1.080596923828125,0.6171722412109375,-0.88201904296875
2023-11-29T21:30:12.651+01:00,3524.957176291667,-1.076980590820312,0.5067138671875,-0.8643951416015625
2023-11-29T21:30:12.671+01:00,3524.977113291667,-1.088577270507812,0.5394744873046875,-0.8164215087890625
2023-11-29T21:30:12.690+01:00,3524.997051291667,-1.056320190429688,0.3740997314453125,-0.6892547607421875
2023-11-29T21:30:12.711+01:00,3525.016988291667,-1.009979248046875,0.32794189453125,-0.62744140625
2023-11-29T21:30:12.730+01:00,3525.036925291667,-0.9922637939453125,0.32952880859375,-0.5672607421875
2023-11-29T21:30:12.750+01:00,3525.056862291667,-0.9592437744140625,0.346038818359375,-0.54302978515625
2023-11-29T21:30:12.770+01:00,3525.076800291667,-0.967529296875,0.33966064453125,-0.5310516357421875
2023-11-29T21:30:12.790+01:00,3525.096737291667,-1.013473510742188,0.36785888671875,-0.533447265625
2023-11-29T21:30:12.810+01:00,3525.116674291667,-1.101043701171875,0.3903656005859375,-0.53106689453125
2023-11-29T21:30:12.830+01:00,3525.136611291667,-1.171676635742188,0.4256744384765625,-0.532196044921875
2023-11-29T21:30:12.850+01:00,3525.156549291667,-1.153244018554688,0.4499664306640625,-0.4911956787109375
2023-11-29T21:30:12.870+01:00,3525.176486291667,-1.042022705078125,0.412445068359375,-0.4353179931640625
2023-11-29T21:30:12.890+01:00,3525.196423291667,-0.924591064453125,0.3775787353515625,-0.3939971923828125
2023-11-29T21:30:12.910+01:00,3525.216360291667,-0.80474853515625,0.36370849609375,-0.34912109375
2023-11-29T21:30:12.930+01:00,3525.236298291667,-0.7376708984375,0.3137969970703125,-0.31317138671875
2023-11-29T21:30:12.950+01:00,3525.256235291667,-0.68768310546875,0.2680511474609375,-0.29364013671875
2023-11-29T21:30:12.970+01:00,3525.276172291667,-0.6504058837890625,0.2135162353515625,-0.25714111328125
2023-11-29T21:30:12.990+01:00,3525.296109291667,-0.62420654296875,0.163543701171875,-0.2647857666015625
2023-11-29T21:30:13.010+01:00,3525.316047291667,-0.6181488037109375,0.175933837890625,-0.2597198486328125
2023-11-29T21:30:13.030+01:00,3525.335984291667,-0.60845947265625,0.145263671875,-0.26470947265625
2023-11-29T21:30:13.049+01:00,3525.355921291667,-0.55303955078125,0.14520263671875,-0.2610015869140625
2023-11-29T21:30:13.069+01:00,3525.375858291667,-0.5245208740234375,0.159149169921875,-0.26947021484375
2023-11-29T21:30:13.089+01:00,3525.395796291667,-0.5104827880859375,0.1471710205078125,-0.27593994140625
2023-11-29T21:30:13.109+01:00,3525.415733291667,-0.4586181640625,0.1299285888671875,-0.25152587890625
2023-11-29T21:30:13.129+01:00,3525.435670291667,-0.430419921875,0.101959228515625,-0.22265625
2023-11-29T21:30:13.149+01:00,3525.455607291667,-0.3858795166015625,0.080413818359375,-0.298431396484375
2023-11-29T21:30:13.169+01:00,3525.475545291667,-0.3177642822265625,0.21673583984375,-0.427276611328125
2023-11-29T21:30:13.189+01:00,3525.495482291667,-0.1553802490234375,0.1911468505859375,-0.604736328125
2023-11-29T21:30:13.209+01:00,3525.515420375,0.1591644287109375,0.418304443359375,-0.8065338134765625
2023-11-29T21:30:13.229+01:00,3525.535357375,0.4333038330078125,0.6674957275390625,-0.7432708740234375
2023-11-29T21:30:13.249+01:00,3525.555295375,0.2654876708984375,0.6123046875,-0.80352783203125
2023-11-29T21:30:13.269+01:00,3525.575232375,-0.2818145751953125,0.8179931640625,-0.8236236572265625
2023-11-29T21:30:13.289+01:00,3525.595169375,-1.233551025390625,1.200271606445312,-0.97760009765625
2023-11-29T21:30:13.309+01:00,3525.615106375,-2.175552368164062,1.353652954101562,-0.8101348876953125
2023-11-29T21:30:13.328+01:00,3525.635044375,-2.152786254882812,1.098251342773438,-0.6238555908203125
2023-11-29T21:30:13.349+01:00,3525.654981375,-1.575927734375,1.284591674804688,-0.560791015625
2023-11-29T21:30:13.368+01:00,3525.674918375,-1.558074951171875,1.502090454101562,-0.6285858154296875
2023-11-29T21:30:13.388+01:00,3525.694855375,-1.382720947265625,1.284622192382812,-0.4346466064453125
2023-11-29T21:30:13.408+01:00,3525.714793375,-0.4144134521484375,0.9369659423828125,-0.982421875
2023-11-29T21:30:13.428+01:00,3525.734730375,0.9534454345703125,1.155349731445312,-1.334930419921875
2023-11-29T21:30:13.448+01:00,3525.754667375,1.695358276367188,1.038467407226562,-1.442230224609375
2023-11-29T21:30:13.468+01:00,3525.774604375,1.764450073242188,1.1109619140625,-1.79266357421875
2023-11-29T21:30:13.488+01:00,3525.794542375,1.816314697265625,0.96771240234375,-1.725387573242188
2023-11-29T21:30:13.508+01:00,3525.814479375,1.307693481445312,0.4330291748046875,-1.37921142578125
2023-11-29T21:30:13.528+01:00,3525.834416375,0.975189208984375,0.290679931640625,-1.11297607421875
2023-11-29T21:30:13.548+01:00,3525.854353375,0.6207275390625,0.41485595703125,-1.127334594726562
2023-11-29T21:30:13.568+01:00,3525.874291375,0.10986328125,0.7828826904296875,-1.186004638671875
2023-11-29T21:30:13.588+01:00,3525.894228375,-0.473052978515625,1.017913818359375,-1.621368408203125
2023-11-29T21:30:13.608+01:00,3525.914165375,-0.8940887451171875,0.99774169921875,-1.74566650390625
2023-11-29T21:30:13.628+01:00,3525.934102375,-0.9901275634765625,0.907318115234375,-1.644256591796875
2023-11-29T21:30:13.647+01:00,3525.954040375,-0.826507568359375,1.087921142578125,-1.23443603515625
2023-11-29T21:30:13.667+01:00,3525.973977375,-0.44366455078125,1.347091674804688,-1.22119140625
2023-11-29T21:30:13.688+01:00,3525.993914375,-0.191619873046875,1.273330688476562,-1.285049438476562
2023-11-29T21:30:13.707+01:00,3526.013851375,-0.22930908203125,1.018844604492188,-1.048965454101562
2023-11-29T21:30:13.727+01:00,3526.033789375,-0.6556549072265625,0.7762603759765625,-0.8694610595703125
2023-11-29T21:30:13.747+01:00,3526.053726375,-0.6366729736328125,0.85479736328125,-0.7100982666015625
2023-11-29T21:30:13.767+01:00,3526.073663375,-1.0810546875,1.28436279296875,-0.9347381591796875
2023-11-29T21:30:13.787+01:00,3526.093600375,-1.681015014648438,0.9387969970703125,-0.493011474609375
2023-11-29T21:30:13.807+01:00,3526.113538375,-1.846511840820312,0.2233123779296875,-0.21649169921875
2023-11-29T21:30:13.827+01:00,3526.133475375,-1.14697265625,-0.1713409423828125,0.0071563720703125
2023-11-29T21:30:13.847+01:00,3526.153412375,-1.224945068359375,-0.6083984375,0.210601806640625
2023-11-29T21:30:13.867+01:00,3526.173349375,-2.6351318359375,-0.1969146728515625,-0.053375244140625
2023-11-29T21:30:13.887+01:00,3526.193287375,-3.81396484375,-0.3255767822265625,0.6371612548828125
2023-11-29T21:30:13.907+01:00,3526.213224375,-2.371841430664062,-1.778945922851562,0.93316650390625
2023-11-29T21:30:13.927+01:00,3526.233161375,-3.2579345703125,-1.618972778320312,0.895294189453125
2023-11-29T21:30:13.947+01:00,3526.253098375,-3.409713745117188,-1.81829833984375,0.4943084716796875
2023-11-29T21:30:13.967+01:00,3526.273036375,-2.766998291015625,-0.434722900390625,-0.4244232177734375
2023-11-29T21:30:13.986+01:00,3526.292973375,-2.489349365234375,0.8050384521484375,-0.8257598876953125
2023-11-29T21:30:14.006+01:00,3526.312910375,-2.443695068359375,0.6249542236328125,-0.539306640625
2023-11-29T21:30:14.026+01:00,3526.332847375,-2.463134765625,1.046615600585938,-0.3704376220703125
2023-11-29T21:30:14.046+01:00,3526.352785375,-2.244949340820312,0.709320068359375,-0.250152587890625
2023-11-29T21:30:14.066+01:00,3526.372722375,-1.91015625,1.067337036132812,-0.6983489990234375
2023-11-29T21:30:14.086+01:00,3526.392659375,-1.737884521484375,1.186126708984375,-0.271697998046875
2023-11-29T21:30:14.106+01:00,3526.412596375,-1.67486572265625,1.319015502929688,-0.2987823486328125
2023-11-29T21:30:14.126+01:00,3526.432534375,-1.691696166992188,1.813919067382812,-0.4117279052734375
2023-11-29T21:30:14.146+01:00,3526.452471375,-1.689910888671875,1.757797241210938,-0.452392578125
2023-11-29T21:30:14.166+01:00,3526.472408375,-1.593307495117188,1.952590942382812,-0.5440826416015625
2023-11-29T21:30:14.186+01:00,3526.492345375,-1.460159301757812,1.939163208007812,-0.5569305419921875
2023-11-29T21:30:14.209+01:00,3526.512281375,-1.362747192382812,1.822555541992188,-0.5742645263671875
2023-11-29T21:30:14.226+01:00,3526.532219375,-1.231796264648438,1.779312133789062,-0.6156463623046875
2023-11-29T21:30:14.245+01:00,3526.552156375,-1.079208374023438,1.658432006835938,-0.5802764892578125
2023-11-29T21:30:14.265+01:00,3526.572093375,-0.91986083984375,1.485519409179688,-0.4986114501953125
2023-11-29T21:30:14.285+01:00,3526.592030375,-0.754608154296875,1.286514282226562,-0.3737030029296875
2023-11-29T21:30:14.305+01:00,3526.611968375,-0.6130523681640625,1.096542358398438,-0.29608154296875
2023-11-29T21:30:14.325+01:00,3526.631905375,-0.540435791015625,0.9713592529296875,-0.3244476318359375
2023-11-29T21:30:14.345+01:00,3526.651842375,-0.44390869140625,0.87237548828125,-0.2998199462890625
2023-11-29T21:30:14.365+01:00,3526.671779375,-0.341796875,0.698516845703125,-0.2197265625
2023-11-29T21:30:14.385+01:00,3526.691717375,-0.2614288330078125,0.597137451171875,-0.1548004150390625
2023-11-29T21:30:14.405+01:00,3526.711654375,-0.21075439453125,0.5115966796875,-0.0957183837890625
2023-11-29T21:30:14.425+01:00,3526.731591375,-0.11309814453125,0.3956756591796875,-0.085205078125
2023-11-29T21:30:14.445+01:00,3526.751528375,-0.112823486328125,0.350311279296875,-0.0585174560546875
2023-11-29T21:30:14.465+01:00,3526.771466375,-0.190338134765625,0.2666473388671875,-0.045623779296875
2023-11-29T21:30:14.485+01:00,3526.791403375,-0.4403228759765625,0.3145294189453125,0.049713134765625
2023-11-29T21:30:14.505+01:00,3526.811340375,-0.75738525390625,0.306060791015625,-0.0054473876953125
2023-11-29T21:30:14.525+01:00,3526.831277375,-1.044342041015625,0.4405975341796875,-0.1073150634765625
2023-11-29T21:30:14.545+01:00,3526.851215375,-1.203384399414062,0.398284912109375,-0.0630035400390625
2023-11-29T21:30:14.565+01:00,3526.871152375,-1.1883544921875,0.2771759033203125,0.0042724609375
2023-11-29T21:30:14.584+01:00,3526.891089375,-1.011795043945312,0.274505615234375,-0.015411376953125
2023-11-29T21:30:14.604+01:00,3526.911026375,-0.8942718505859375,0.3583526611328125,-0.0576171875
2023-11-29T21:30:14.625+01:00,3526.930963375,-0.7873992919921875,0.24542236328125,-0.0332794189453125
2023-11-29T21:30:14.644+01:00,3526.950901375,-0.7240142822265625,0.1138153076171875,0.039886474609375
2023-11-29T21:30:14.664+01:00,3526.970838375,-0.7616424560546875,0.1200714111328125,0.07293701171875
2023-11-29T21:30:14.684+01:00,3526.990775375,-0.862945556640625,0.176971435546875,0.0731964111328125
2023-11-29T21:30:14.704+01:00,3527.010712375,-0.99859619140625,0.136962890625,0.0866851806640625
2023-11-29T21:30:14.724+01:00,3527.030650375,-1.191970825195312,0.14215087890625,0.0476226806640625
2023-11-29T21:30:14.744+01:00,3527.050587375,-1.343612670898438,0.2247161865234375,-0.0133209228515625
2023-11-29T21:30:14.764+01:00,3527.070524375,-1.3463134765625,0.1646728515625,-0.06402587890625
2023-11-29T21:30:14.784+01:00,3527.090461375,-1.29949951171875,0.1587066650390625,-0.1810150146484375
2023-11-29T21:30:14.804+01:00,3527.110399375,-1.315261840820312,0.154266357421875,-0.3531341552734375
2023-11-29T21:30:14.824+01:00,3527.130336375,-1.296844482421875,0.1464996337890625,-0.4252471923828125
2023-11-29T21:30:14.844+01:00,3527.150273375,-1.213470458984375,0.0780487060546875,-0.4408111572265625
2023-11-29T21:30:14.864+01:00,3527.170210375,-1.138275146484375,0.09588623046875,-0.4790802001953125
2023-11-29T21:30:14.883+01:00,3527.190148375,-1.117401123046875,0.0827178955078125,-0.5040435791015625
2023-11-29T21:30:14.906+01:00,3527.210085375,-0.9913482666015625,-0.0572967529296875,-0.36578369140625
2023-11-29T21:30:14.923+01:00,3527.230022375,-0.896270751953125,-0.0249481201171875,-0.28076171875
2023-11-29T21:30:14.943+01:00,3527.249959375,-0.877838134765625,0.09979248046875,-0.2900848388671875
2023-11-29T21:30:14.963+01:00,3527.269896375,-0.783233642578125,0.1767425537109375,-0.1525421142578125
2023-11-29T21:30:14.983+01:00,3527.289834375,-0.7440032958984375,-0.0129547119140625,-0.0703887939453125
2023-11-29T21:30:15.003+01:00,3527.309771375,-0.7677459716796875,0.0068206787109375,-0.0985870361328125
2023-11-29T21:30:15.023+01:00,3527.329708375,-0.814544677734375,0.3287200927734375,-0.172210693359375
2023-11-29T21:30:15.043+01:00,3527.349645375,-0.792633056640625,0.4183349609375,-0.1224365234375
2023-11-29T21:30:15.063+01:00,3527.369583375,-0.863067626953125,0.3554534912109375,-0.072296142578125
2023-11-29T21:30:15.083+01:00,3527.389520375,-0.905059814453125,0.504119873046875,-0.1174163818359375
2023-11-29T21:30:15.103+01:00,3527.409457375,-1.025955200195312,0.8533782958984375,-0.2798309326171875
2023-11-29T21:30:15.123+01:00,3527.429394375,-1.027206420898438,0.9926910400390625,-0.379791259765625
2023-11-29T21:30:15.143+01:00,3527.449332375,-0.9542083740234375,1.039947509765625,-0.338714599609375
2023-11-29T21:30:15.163+01:00,3527.469269375,-0.9107666015625,0.9947052001953125,-0.39373779296875
2023-11-29T21:30:15.183+01:00,3527.489206375,-0.866119384765625,1.174606323242188,-0.6201934814453125
2023-11-29T21:30:15.203+01:00,3527.509143375,-0.75927734375,1.537857055664062,-0.6077117919921875
2023-11-29T21:30:15.223+01:00,3527.529080375,-0.7681884765625,1.658920288085938,-0.5897979736328125
2023-11-29T21:30:15.242+01:00,3527.549018375,-0.8765106201171875,1.566574096679688,-0.5759429931640625
2023-11-29T21:30:15.262+01:00,3527.568955375,-0.9471893310546875,1.471099853515625,-0.8330078125
2023-11-29T21:30:15.282+01:00,3527.588892375,-1.078369140625,1.253982543945312,-0.896026611328125
2023-11-29T21:30:15.302+01:00,3527.608829375,-1.41131591796875,1.213973999023438,-0.916900634765625
2023-11-29T21:30:15.322+01:00,3527.628767375,-1.783798217773438,1.245742797851562,-0.9633331298828125
2023-11-29T21:30:15.342+01:00,3527.648704375,-1.940292358398438,1.340606689453125,-0.851837158203125
2023-11-29T21:30:15.362+01:00,3527.668641375,-1.9085693359375,1.279708862304688,-0.778228759765625
2023-11-29T21:30:15.382+01:00,3527.688578375,-1.379241943359375,0.9087371826171875,0.5466461181640625
2023-11-29T21:30:15.402+01:00,3527.708516375,-1.398574829101562,1.18353271484375,-0.4967803955078125
2023-11-29T21:30:15.422+01:00,3527.728453375,-1.231536865234375,0.1834564208984375,-0.061248779296875
2023-11-29T21:30:15.442+01:00,3527.748390375,-1.183822631835938,0.538818359375,-0.13201904296875
2023-11-29T21:30:15.463+01:00,3527.768327375,-1.155715942382812,0.547637939453125,-0.1318817138671875
2023-11-29T21:30:15.482+01:00,3527.788264375,-1.147384643554688,0.3114013671875,-0.004791259765625
2023-11-29T21:30:15.502+01:00,3527.808202375,-1.017898559570312,0.513763427734375,0.113861083984375
2023-11-29T21:30:15.521+01:00,3527.828139375,-0.8817291259765625,0.6599884033203125,0.2241973876953125
2023-11-29T21:30:15.541+01:00,3527.848076375,-0.773193359375,0.5646514892578125,0.2812347412109375
2023-11-29T21:30:15.562+01:00,3527.868013375,-0.609619140625,0.482757568359375,0.301544189453125
2023-11-29T21:30:15.581+01:00,3527.887951375,-0.478240966796875,0.40576171875,0.3488006591796875
2023-11-29T21:30:15.601+01:00,3527.907888375,-0.36700439453125,0.3436126708984375,0.302032470703125
2023-11-29T21:30:15.621+01:00,3527.927825375,-0.31280517578125,0.419219970703125,0.1864166259765625
2023-11-29T21:30:15.641+01:00,3527.947762375,-0.28729248046875,0.5546722412109375,0.01641845703125
2023-11-29T21:30:15.661+01:00,3527.967699375,-0.3040771484375,0.5713958740234375,-0.11737060546875
2023-11-29T21:30:15.681+01:00,3527.987637375,-0.31561279296875,0.4617462158203125,-0.271514892578125
2023-11-29T21:30:15.701+01:00,3528.007574375,-0.274627685546875,0.432952880859375,-0.349090576171875
2023-11-29T21:30:15.721+01:00,3528.027511375,-0.2227935791015625,0.3676910400390625,-0.4049072265625
2023-11-29T21:30:15.741+01:00,3528.047448375,-0.0981903076171875,0.3592376708984375,-0.402862548828125
2023-11-29T21:30:15.761+01:00,3528.067386375,-0.0284576416015625,0.3572235107421875,-0.47161865234375
2023-11-29T21:30:15.781+01:00,3528.087323375,-0.035888671875,0.46795654296875,-0.527496337890625
2023-11-29T21:30:15.801+01:00,3528.107260375,-0.0769805908203125,0.454986572265625,-0.610595703125
2023-11-29T21:30:15.821+01:00,3528.127197375,-0.0295257568359375,0.4712066650390625,-0.6658782958984375
2023-11-29T21:30:15.841+01:00,3528.147135375,0.0257415771484375,0.4984283447265625,-0.6362762451171875
2023-11-29T21:30:15.860+01:00,3528.167072375,0.0454559326171875,0.4604644775390625,-0.6688995361328125
2023-11-29T21:30:15.881+01:00,3528.187009375,0.0457305908203125,0.6103363037109375,-0.68084716796875
2023-11-29T21:30:15.901+01:00,3528.206946375,-0.0145721435546875,0.876007080078125,-0.648834228515625
2023-11-29T21:30:15.920+01:00,3528.226883375,-0.122222900390625,1.018218994140625,-0.5685272216796875
2023-11-29T21:30:15.940+01:00,3528.246821375,-0.2567291259765625,1.088424682617188,-0.4188232421875
2023-11-29T21:30:15.960+01:00,3528.266758375,-0.4692840576171875,1.221755981445312,-0.31866455078125
2023-11-29T21:30:15.980+01:00,3528.286695375,-0.764434814453125,1.403152465820312,-0.296295166015625
2023-11-29T21:30:16.000+01:00,3528.306632375,-0.96826171875,1.723739624023438,-0.3491363525390625
2023-11-29T21:30:16.020+01:00,3528.326570375,-1.101272583007812,1.768417358398438,-0.4085235595703125
2023-11-29T21:30:16.040+01:00,3528.346507375,-1.113128662109375,1.41455078125,-0.36639404296875
2023-11-29T21:30:16.060+01:00,3528.366444375,-1.173782348632812,1.114791870117188,-0.327423095703125
2023-11-29T21:30:16.080+01:00,3528.386381375,-1.260177612304688,0.9263916015625,-0.369476318359375
2023-11-29T21:30:16.100+01:00,3528.406319375,-1.149673461914062,0.8282012939453125,-0.4520721435546875
2023-11-29T21:30:16.120+01:00,3528.426256375,-0.88970947265625,0.6951904296875,-0.3937835693359375
2023-11-29T21:30:16.140+01:00,3528.446193375,-0.4951019287109375,0.604644775390625,-0.2379150390625
2023-11-29T21:30:16.160+01:00,3528.466130375,-0.1314544677734375,0.4134521484375,-0.1860504150390625
2023-11-29T21:30:16.179+01:00,3528.486067375,0.0493011474609375,0.3925628662109375,-0.2508392333984375
2023-11-29T21:30:16.199+01:00,3528.506005375,-0.000274658203125,0.455474853515625,-0.3544769287109375
2023-11-29T21:30:16.219+01:00,3528.52594325,-0.1160736083984375,0.4044342041015625,-0.348968505859375
2023-11-29T21:30:16.239+01:00,3528.54588025,-0.29583740234375,0.319244384765625,-0.309783935546875
2023-11-29T21:30:16.259+01:00,3528.56581725,-0.5344390869140625,0.325103759765625,-0.3066864013671875
2023-11-29T21:30:16.279+01:00,3528.58575525,-0.9012603759765625,0.4814453125,-0.4056549072265625
2023-11-29T21:30:16.299+01:00,3528.60569225,-1.5,0.81256103515625,-0.467010498046875
2023-11-29T21:30:16.319+01:00,3528.62562925,-2.075576782226562,1.055221557617188,-0.352813720703125
2023-11-29T21:30:16.339+01:00,3528.64556625,-1.996994018554688,0.873443603515625,-0.2069244384765625
2023-11-29T21:30:16.359+01:00,3528.66550325,-1.701004028320312,0.7089691162109375,-0.2101898193359375
2023-11-29T21:30:16.379+01:00,3528.68544125,-1.3607177734375,0.802520751953125,-0.360382080078125
2023-11-29T21:30:16.399+01:00,3528.70537825,-0.9939117431640625,0.8952789306640625,-0.5629730224609375
2023-11-29T21:30:16.419+01:00,3528.72531525,-0.6405181884765625,0.7855377197265625,-0.5594482421875
2023-11-29T21:30:16.439+01:00,3528.74525225,-0.3462066650390625,0.658294677734375,-0.570556640625
2023-11-29T21:30:16.459+01:00,3528.76519025,-0.495758056640625,0.828826904296875,-0.637481689453125
2023-11-29T21:30:16.478+01:00,3528.78512725,-1.012344360351562,1.027069091796875,-0.8059539794921875
2023-11-29T21:30:16.498+01:00,3528.80506425,-1.201858520507812,0.9542694091796875,-0.791290283203125
2023-11-29T21:30:16.518+01:00,3528.82500125,-1.145004272460938,0.694610595703125,-0.73748779296875
2023-11-29T21:30:16.538+01:00,3528.84493825,-1.10498046875,0.5963592529296875,-0.6747589111328125
2023-11-29T21:30:16.558+01:00,3528.86487625,-0.9288330078125,0.7261810302734375,-0.603515625
2023-11-29T21:30:16.578+01:00,3528.88481325,-0.4890594482421875,0.6993255615234375,-0.43914794921875
2023-11-29T21:30:16.598+01:00,3528.90475025,0.0355377197265625,0.4998626708984375,-0.2529754638671875
2023-11-29T21:30:16.618+01:00,3528.92468725,0.265289306640625,0.42169189453125,-0.15765380859375
2023-11-29T21:30:16.638+01:00,3528.94462525,0.0760345458984375,0.2585906982421875,-0.0585174560546875
2023-11-29T21:30:16.658+01:00,3528.96456225,-0.0216217041015625,0.1815948486328125,0.046234130859375
2023-11-29T21:30:16.678+01:00,3528.98449925,-0.02276611328125,0.0548248291015625,0.02203369140625
2023-11-29T21:30:16.698+01:00,3529.00443625,-0.0164642333984375,0.06781005859375,0.0052337646484375
2023-11-29T21:30:16.718+01:00,3529.02437425,-0.063873291015625,0.230560302734375,-0.0133514404296875
2023-11-29T21:30:16.738+01:00,3529.04431125,-0.12335205078125,0.3338470458984375,-0.0564422607421875
2023-11-29T21:30:16.758+01:00,3529.06424825,-0.2402191162109375,0.3734283447265625,-0.08697509765625
2023-11-29T21:30:16.778+01:00,3529.08418525,-0.3960113525390625,0.34344482421875,-0.1665496826171875
2023-11-29T21:30:16.798+01:00,3529.10412225,-0.862518310546875,0.439422607421875,-0.335479736328125
2023-11-29T21:30:16.817+01:00,3529.12406025,-2.066635131835938,0.718170166015625,-0.3658447265625
2023-11-29T21:30:16.837+01:00,3529.14399725,-2.686614990234375,0.4718017578125,0.0316162109375
2023-11-29T21:30:16.857+01:00,3529.16393425,-1.58953857421875,0.443695068359375,-0.168975830078125
2023-11-29T21:30:16.877+01:00,3529.18387125,-1.629898071289062,0.8589630126953125,-0.369354248046875
2023-11-29T21:30:16.897+01:00,3529.20380925,-1.655929565429688,1.296417236328125,-0.6582183837890625
2023-11-29T21:30:16.917+01:00,3529.22374625,-1.418670654296875,1.417404174804688,-1.209136962890625
2023-11-29T21:30:16.937+01:00,3529.24368325,-1.159835815429688,1.403945922851562,-1.4725341796875
2023-11-29T21:30:16.957+01:00,3529.26362025,-1.022491455078125,1.94207763671875,-1.5841064453125
2023-11-29T21:30:16.977+01:00,3529.28355725,-0.225494384765625,1.978530883789062,-1.640975952148438
2023-11-29T21:30:16.997+01:00,3529.30349525,0.8822021484375,1.735580444335938,-1.765533447265625
2023-11-29T21:30:17.017+01:00,3529.32343225,0.7753753662109375,1.797378540039062,-1.8677978515625
2023-11-29T21:30:17.037+01:00,3529.34336925,0.0302276611328125,1.684768676757812,-1.892745971679688
2023-11-29T21:30:17.057+01:00,3529.36330625,-0.2274627685546875,1.441360473632812,-1.682891845703125
2023-11-29T21:30:17.077+01:00,3529.38324425,-0.0954132080078125,1.512237548828125,-1.754959106445312
2023-11-29T21:30:17.097+01:00,3529.40318125,-0.073486328125,1.687911987304688,-1.538497924804688
2023-11-29T21:30:17.116+01:00,3529.42311825,-0.4823455810546875,1.649887084960938,-1.3232421875
2023-11-29T21:30:17.136+01:00,3529.44305525,-0.81024169921875,1.451507568359375,-0.8949737548828125
2023-11-29T21:30:17.156+01:00,3529.46299225,-0.889190673828125,1.106796264648438,-0.4781341552734375
2023-11-29T21:30:17.176+01:00,3529.48293025,-0.7661590576171875,0.8025970458984375,-0.31268310546875
2023-11-29T21:30:17.198+01:00,3529.50286725,-0.6564788818359375,0.8897247314453125,-0.3001861572265625
2023-11-29T21:30:17.216+01:00,3529.522804125,-0.56982421875,0.6964111328125,-0.2886810302734375
2023-11-29T21:30:17.236+01:00,3529.542741125,-0.3441314697265625,0.5032958984375,-0.1354522705078125
2023-11-29T21:30:17.256+01:00,3529.562679125,-0.292877197265625,0.64007568359375,-0.0162506103515625
2023-11-29T21:30:17.276+01:00,3529.582616125,0.0487060546875,0.6724395751953125,0.204742431640625
2023-11-29T21:30:17.296+01:00,3529.602553125,0.8141632080078125,0.965362548828125,0.2516937255859375
2023-11-29T21:30:17.316+01:00,3529.622490125,0.9206695556640625,1.466781616210938,0.070709228515625
2023-11-29T21:30:17.336+01:00,3529.642427125,0.040924072265625,1.704330444335938,-0.1908111572265625
2023-11-29T21:30:17.356+01:00,3529.662365125,-0.8095855712890625,2.11309814453125,-0.8917083740234375
2023-11-29T21:30:17.376+01:00,3529.682302125,-1.7862548828125,1.28460693359375,0.2586517333984375
2023-11-29T21:30:17.396+01:00,3529.702239125,-2.224212646484375,1.63720703125,0.0366058349609375
2023-11-29T21:30:17.416+01:00,3529.722176125,-2.3236083984375,1.296630859375,0.3220977783203125
2023-11-29T21:30:17.435+01:00,3529.742114125,-2.828475952148438,1.32049560546875,0.17327880859375
2023-11-29T21:30:17.455+01:00,3529.762051125,-3.34100341796875,1.38275146484375,0.273223876953125
2023-11-29T21:30:17.475+01:00,3529.781988125,-3.365707397460938,1.053176879882812,0.3963775634765625
2023-11-29T21:30:17.495+01:00,3529.801925125,-2.905029296875,0.26666259765625,0.4993438720703125
2023-11-29T21:30:17.515+01:00,3529.821862125,-2.754684448242188,-0.4429168701171875,0.141815185546875
2023-11-29T21:30:17.535+01:00,3529.841800125,-2.629791259765625,-0.72027587890625,-0.160919189453125
2023-11-29T21:30:17.555+01:00,3529.861737125,-2.535202026367188,-0.4954071044921875,-0.5181884765625
2023-11-29T21:30:17.575+01:00,3529.881674125,-2.461090087890625,0.01202392578125,-0.7007293701171875
2023-11-29T21:30:17.595+01:00,3529.901611125,-2.424346923828125,0.2750244140625,-0.9900054931640625
2023-11-29T21:30:17.615+01:00,3529.921549125,-2.361785888671875,0.636871337890625,-1.223846435546875
2023-11-29T21:30:17.635+01:00,3529.941486125,-2.154815673828125,0.687225341796875,-1.397842407226562
2023-11-29T21:30:17.655+01:00,3529.961423125,-1.811676025390625,0.8946685791015625,-1.336807250976562
2023-11-29T21:30:17.675+01:00,3529.981360125,-1.527084350585938,1.100555419921875,-1.211929321289062
2023-11-29T21:30:17.695+01:00,3530.001297125,-1.52777099609375,1.368576049804688,-1.107742309570312
2023-11-29T21:30:17.715+01:00,3530.021235125,-1.452667236328125,1.8076171875,-0.89715576171875
2023-11-29T21:30:17.735+01:00,3530.041172125,-1.265182495117188,2.019271850585938,-0.7848968505859375
2023-11-29T21:30:17.755+01:00,3530.061109125,-1.1878662109375,1.875686645507812,-0.733612060546875
2023-11-29T21:30:17.775+01:00,3530.081046125,-1.052810668945312,1.625274658203125,-0.65899658203125
2023-11-29T21:30:17.795+01:00,3530.100984125,-0.81939697265625,1.499710083007812,-0.5119781494140625
2023-11-29T21:30:17.814+01:00,3530.120921125,-0.6912078857421875,1.363372802734375,-0.381439208984375
2023-11-29T21:30:17.834+01:00,3530.140858125,-0.5496978759765625,1.135009765625,-0.2275848388671875
2023-11-29T21:30:17.854+01:00,3530.160795125,-0.4063873291015625,0.9908447265625,-0.10595703125
2023-11-29T21:30:17.874+01:00,3530.180732125,-0.311065673828125,0.93609619140625,-0.0761871337890625
2023-11-29T21:30:17.894+01:00,3530.200670125,-0.290252685546875,0.8631439208984375,0.0196075439453125
2023-11-29T21:30:17.914+01:00,3530.220607125,-0.3437042236328125,0.777618408203125,0.15045166015625
2023-11-29T21:30:17.934+01:00,3530.240544125,-0.433990478515625,0.853790283203125,0.2184600830078125
2023-11-29T21:30:17.954+01:00,3530.260481125,-0.5830535888671875,0.8548126220703125,0.172210693359375
2023-11-29T21:30:17.974+01:00,3530.280418125,-0.7084808349609375,0.811981201171875,0.26141357421875
2023-11-29T21:30:17.994+01:00,3530.300356125,-0.8195037841796875,0.5739288330078125,0.412506103515625
2023-11-29T21:30:18.014+01:00,3530.320293125,-0.8625335693359375,0.2668914794921875,0.48809814453125
2023-11-29T21:30:18.034+01:00,3530.340230125,-0.878021240234375,0.1655731201171875,0.5073699951171875
2023-11-29T21:30:18.054+01:00,3530.360167125,-0.93951416015625,0.4221038818359375,0.5105133056640625
2023-11-29T21:30:18.073+01:00,3530.380105125,-0.9295196533203125,0.7160797119140625,0.441650390625
2023-11-29T21:30:18.093+01:00,3530.400042125,-0.9002838134765625,0.7132110595703125,0.3729400634765625
2023-11-29T21:30:18.113+01:00,3530.419979125,-0.76348876953125,0.563262939453125,0.3108062744140625
2023-11-29T21:30:18.133+01:00,3530.439916125,-0.6067657470703125,0.373016357421875,0.17266845703125
2023-11-29T21:30:18.153+01:00,3530.459853125,-0.3986358642578125,0.417205810546875,0.0485687255859375
2023-11-29T21:30:18.173+01:00,3530.479791125,-0.202667236328125,0.5524444580078125,-0.01513671875
2023-11-29T21:30:18.193+01:00,3530.499728125,-0.006866455078125,0.8013153076171875,-0.0505828857421875
2023-11-29T21:30:18.213+01:00,3530.519664875,0.038360595703125,0.9127197265625,-0.1805267333984375
2023-11-29T21:30:18.233+01:00,3530.539601875,-0.0819549560546875,0.9845428466796875,-0.28363037109375
2023-11-29T21:30:18.253+01:00,3530.559539875,-0.270751953125,1.109451293945312,-0.4176177978515625
2023-11-29T21:30:18.273+01:00,3530.579476875,-0.4406280517578125,1.196304321289062,-0.4994964599609375
2023-11-29T21:30:18.293+01:00,3530.599413875,-0.5028533935546875,1.260818481445312,-0.55560302734375
2023-11-29T21:30:18.313+01:00,3530.619350875,-0.591461181640625,1.263153076171875,-0.624603271484375
2023-11-29T21:30:18.333+01:00,3530.639287875,-0.6496124267578125,1.13494873046875,-0.56878662109375
2023-11-29T21:30:18.353+01:00,3530.659225875,-0.6492156982421875,1.0233154296875,-0.4731597900390625
2023-11-29T21:30:18.373+01:00,3530.679162875,-0.6024017333984375,0.8750457763671875,-0.4031982421875
2023-11-29T21:30:18.393+01:00,3530.699099875,-0.51123046875,0.7363739013671875,-0.3297271728515625
2023-11-29T21:30:18.412+01:00,3530.719036875,-0.341033935546875,0.627166748046875,-0.275238037109375
2023-11-29T21:30:18.433+01:00,3530.738974875,-0.1395111083984375,0.5597076416015625,-0.1925048828125
2023-11-29T21:30:18.453+01:00,3530.758911875,0.0433197021484375,0.472869873046875,-0.1110076904296875
2023-11-29T21:30:18.472+01:00,3530.778848875,0.14013671875,0.4519805908203125,-0.142669677734375
2023-11-29T21:30:18.492+01:00,3530.798785875,0.20526123046875,0.4109344482421875,-0.1636505126953125
2023-11-29T21:30:18.512+01:00,3530.818722875,0.244720458984375,0.3253173828125,-0.08209228515625
2023-11-29T21:30:18.532+01:00,3530.838660875,0.2425079345703125,0.1983489990234375,-0.0071563720703125
2023-11-29T21:30:18.552+01:00,3530.858597875,0.171142578125,0.14862060546875,0.0763092041015625
2023-11-29T21:30:18.572+01:00,3530.878534875,0.1706695556640625,0.1697845458984375,0.0623016357421875
2023-11-29T21:30:18.592+01:00,3530.898471875,0.1617889404296875,0.2448272705078125,-0.0149078369140625
2023-11-29T21:30:18.612+01:00,3530.918409875,0.0684051513671875,0.531280517578125,-0.2503662109375
2023-11-29T21:30:18.632+01:00,3530.938346875,-0.0968017578125,0.7896270751953125,-0.482513427734375
2023-11-29T21:30:18.652+01:00,3530.958283875,-0.448394775390625,0.9555206298828125,-0.420379638671875
2023-11-29T21:30:18.672+01:00,3530.978220875,-1.250396728515625,1.51287841796875,-0.6920928955078125
2023-11-29T21:30:18.692+01:00,3530.998157875,-1.93524169921875,1.481582641601562,-0.8192596435546875
2023-11-29T21:30:18.711+01:00,3531.018095875,-1.081985473632812,1.588958740234375,-0.9947662353515625
2023-11-29T21:30:18.731+01:00,3531.038032875,-0.783050537109375,1.553558349609375,-1.0213623046875
2023-11-29T21:30:18.751+01:00,3531.057969875,-1.272781372070312,1.801666259765625,-1.105422973632812
2023-11-29T21:30:18.771+01:00,3531.077906875,-1.117294311523438,1.595794677734375,-1.097320556640625
2023-11-29T21:30:18.791+01:00,3531.097843875,-0.7034912109375,1.02667236328125,-1.20672607421875
2023-11-29T21:30:18.811+01:00,3531.117781875,-0.6422119140625,1.237106323242188,-1.347015380859375
2023-11-29T21:30:18.831+01:00,3531.137718875,-0.729949951171875,1.49261474609375,-1.317474365234375
2023-11-29T21:30:18.851+01:00,3531.157655875,-0.674163818359375,1.251541137695312,-1.222900390625
2023-11-29T21:30:18.871+01:00,3531.177592875,-0.5207672119140625,0.8676910400390625,-1.078369140625
2023-11-29T21:30:18.891+01:00,3531.197529875,-0.3573150634765625,0.74920654296875,-0.943603515625
2023-11-29T21:30:18.911+01:00,3531.217467875,-0.35040283203125,0.744842529296875,-0.82098388671875
2023-11-29T21:30:18.931+01:00,3531.237404875,-0.550811767578125,0.7092437744140625,-0.649078369140625
2023-11-29T21:30:18.951+01:00,3531.257341875,-0.6774444580078125,0.60894775390625,-0.5106201171875
2023-11-29T21:30:18.971+01:00,3531.277278875,-0.6937255859375,0.53021240234375,-0.4504241943359375
2023-11-29T21:30:18.991+01:00,3531.297216875,-0.692626953125,0.5535125732421875,-0.366668701171875
2023-11-29T21:30:19.010+01:00,3531.317153875,-0.704376220703125,0.514373779296875,-0.3001708984375
2023-11-29T21:30:19.030+01:00,3531.337090875,-0.6977996826171875,0.4175262451171875,-0.2922515869140625
2023-11-29T21:30:19.050+01:00,3531.357027875,-0.65020751953125,0.384368896484375,-0.3201904296875
2023-11-29T21:30:19.070+01:00,3531.376964875,-0.5663604736328125,0.3685455322265625,-0.36627197265625
2023-11-29T21:30:19.090+01:00,3531.396902875,-0.5355072021484375,0.3395233154296875,-0.3728485107421875
2023-11-29T21:30:19.110+01:00,3531.416839875,-0.47308349609375,0.2937774658203125,-0.48583984375
2023-11-29T21:30:19.130+01:00,3531.436776875,-0.322601318359375,0.2591552734375,-0.656982421875
2023-11-29T21:30:19.150+01:00,3531.456713875,-0.3193206787109375,0.41058349609375,-0.8224029541015625
2023-11-29T21:30:19.170+01:00,3531.476650875,-0.3558349609375,0.4954681396484375,-0.9806365966796875
2023-11-29T21:30:19.190+01:00,3531.496588875,-0.2466278076171875,0.61248779296875,-1.147857666015625
2023-11-29T21:30:19.210+01:00,3531.51652625,-0.2937164306640625,0.8499908447265625,-1.2822265625
2023-11-29T21:30:19.230+01:00,3531.53646325,-0.4889373779296875,1.002944946289062,-1.4117431640625
2023-11-29T21:30:19.250+01:00,3531.55640025,-0.4364471435546875,0.9204559326171875,-1.347518920898438
2023-11-29T21:30:19.274+01:00,3531.57633725,-0.36175537109375,0.7984466552734375,-1.419692993164062
2023-11-29T21:30:19.290+01:00,3531.59627525,-0.3248443603515625,0.881011962890625,-1.44635009765625
2023-11-29T21:30:19.310+01:00,3531.61621225,-0.189208984375,0.881195068359375,-1.249679565429688
2023-11-29T21:30:19.329+01:00,3531.63614925,-0.207122802734375,0.81524658203125,-1.102615356445312
2023-11-29T21:30:19.349+01:00,3531.65608625,-0.1654205322265625,0.737457275390625,-0.96942138671875
2023-11-29T21:30:19.369+01:00,3531.67602425,-0.1015625,0.8665924072265625,-0.690704345703125
2023-11-29T21:30:19.389+01:00,3531.69596125,0.1780853271484375,0.86920166015625,-0.1434783935546875
2023-11-29T21:30:19.409+01:00,3531.71589825,0.8484649658203125,0.7179412841796875,0.4648284912109375
2023-11-29T21:30:19.429+01:00,3531.73583525,1.336090087890625,0.611328125,1.186843872070312
2023-11-29T21:30:19.449+01:00,3531.75577225,1.411361694335938,0.8626861572265625,1.2926025390625
2023-11-29T21:30:19.469+01:00,3531.77571025,0.966583251953125,1.251617431640625,1.06011962890625
2023-11-29T21:30:19.489+01:00,3531.79564725,0.4835968017578125,1.049331665039062,0.75823974609375
2023-11-29T21:30:19.509+01:00,3531.81558425,-0.06024169921875,0.90069580078125,0.5607452392578125
2023-11-29T21:30:19.529+01:00,3531.83552125,-0.9065704345703125,1.245834350585938,0.1478729248046875
2023-11-29T21:30:19.549+01:00,3531.85545825,-1.685256958007812,0.611419677734375,0.899261474609375
2023-11-29T21:30:19.569+01:00,3531.87539625,-2.414703369140625,2.0272216796875,0.27264404296875
2023-11-29T21:30:19.589+01:00,3531.89533325,-2.44268798828125,1.541290283203125,0.1786041259765625
2023-11-29T21:30:19.609+01:00,3531.91527025,-3.047195434570312,0.8825531005859375,-0.2956695556640625
2023-11-29T21:30:19.629+01:00,3531.93520725,-2.6552734375,0.2461395263671875,0.353240966796875
2023-11-29T21:30:19.649+01:00,3531.95514425,-2.46099853515625,-0.0083465576171875,0.4029388427734375
2023-11-29T21:30:19.677+01:00,3531.97508225,-2.766738891601562,-0.2206573486328125,0.3405609130859375
2023-11-29T21:30:19.689+01:00,3531.99501925,-2.75836181640625,-0.442657470703125,0.04754638671875
2023-11-29T21:30:19.708+01:00,3532.01495625,-2.730514526367188,-0.767120361328125,-0.292205810546875
2023-11-29T21:30:19.728+01:00,3532.03489325,-2.634170532226562,-0.641571044921875,-0.5078582763671875
2023-11-29T21:30:19.748+01:00,3532.05483025,-2.480316162109375,0.0425872802734375,-0.7876129150390625
2023-11-29T21:30:19.768+01:00,3532.07476825,-2.427108764648438,0.84234619140625,-0.9885711669921875
2023-11-29T21:30:19.788+01:00,3532.09470525,-2.025497436523438,1.090286254882812,-0.966278076171875
2023-11-29T21:30:19.808+01:00,3532.11464225,-1.66632080078125,1.398086547851562,-0.8985443115234375
2023-11-29T21:30:19.828+01:00,3532.13457925,-1.576858520507812,2.066070556640625,-0.772918701171875
2023-11-29T21:30:19.848+01:00,3532.15451625,-1.574859619140625,2.233932495117188,-0.850616455078125
2023-11-29T21:30:19.868+01:00,3532.17445425,-1.310455322265625,1.807220458984375,-0.650848388671875
2023-11-29T21:30:19.888+01:00,3532.19439125,-1.170455932617188,2.180511474609375,-0.739990234375
2023-11-29T21:30:19.908+01:00,3532.21432825,-0.9780426025390625,2.307327270507812,-0.806243896484375
2023-11-29T21:30:19.928+01:00,3532.23426525,-0.841766357421875,1.866043090820312,-0.6911163330078125
2023-11-29T21:30:19.948+01:00,3532.25420225,-0.700653076171875,1.57098388671875,-0.5968170166015625
2023-11-29T21:30:19.968+01:00,3532.27414025,-0.545867919921875,1.525192260742188,-0.4180908203125
2023-11-29T21:30:19.987+01:00,3532.29407725,-0.5045928955078125,1.4898681640625,-0.2174835205078125
2023-11-29T21:30:20.007+01:00,3532.31401425,-0.452362060546875,1.455001831054688,-0.053497314453125
2023-11-29T21:30:20.027+01:00,3532.33395125,-0.385650634765625,1.178421020507812,0.1114654541015625
2023-11-29T21:30:20.047+01:00,3532.35388925,-0.3682098388671875,0.798980712890625,0.1747589111328125
2023-11-29T21:30:20.067+01:00,3532.37382625,-0.4373779296875,0.618682861328125,0.118682861328125
2023-11-29T21:30:20.087+01:00,3532.39376325,-0.592132568359375,0.713775634765625,0.0196533203125
2023-11-29T21:30:20.107+01:00,3532.41370025,-0.7754058837890625,0.693878173828125,0.0366668701171875
2023-11-29T21:30:20.127+01:00,3532.43363725,-0.9180450439453125,0.5840911865234375,0.1084442138671875
2023-11-29T21:30:20.147+01:00,3532.45357425,-1.0150146484375,0.571533203125,0.14764404296875
2023-11-29T21:30:20.167+01:00,3532.47351225,-1.115402221679688,0.6192169189453125,0.0848388671875
2023-11-29T21:30:20.187+01:00,3532.49344925,-1.210235595703125,0.544281005859375,0.0948333740234375
2023-11-29T21:30:20.207+01:00,3532.513385666667,-1.28448486328125,0.3845062255859375,0.1635589599609375
2023-11-29T21:30:20.227+01:00,3532.533322666667,-1.19110107421875,0.3076934814453125,0.1481475830078125
2023-11-29T21:30:20.247+01:00,3532.553260666667,-1.040695190429688,0.3428497314453125,0.0750274658203125
2023-11-29T21:30:20.267+01:00,3532.573197666667,-0.9768829345703125,0.470855712890625,-0.1055755615234375
2023-11-29T21:30:20.287+01:00,3532.593134666667,-0.8147430419921875,0.52850341796875,-0.2317352294921875
2023-11-29T21:30:20.306+01:00,3532.613071666667,-0.68634033203125,0.5457305908203125,-0.3079376220703125
2023-11-29T21:30:20.326+01:00,3532.633008666667,-0.6920166015625,0.497528076171875,-0.386474609375
2023-11-29T21:30:20.346+01:00,3532.652945666667,-0.74554443359375,0.5277862548828125,-0.4655303955078125
2023-11-29T21:30:20.366+01:00,3532.672883666667,-0.77105712890625,0.5992584228515625,-0.5293121337890625
2023-11-29T21:30:20.386+01:00,3532.692820666667,-0.739288330078125,0.6085357666015625,-0.5150146484375
2023-11-29T21:30:20.406+01:00,3532.712757666667,-0.70819091796875,0.5913543701171875,-0.5348663330078125
2023-11-29T21:30:20.426+01:00,3532.732694666667,-0.6472015380859375,0.6201629638671875,-0.5594329833984375
2023-11-29T21:30:20.446+01:00,3532.752632666667,-0.6233673095703125,0.6549835205078125,-0.5325927734375
2023-11-29T21:30:20.466+01:00,3532.772569666667,-0.6868133544921875,0.6250762939453125,-0.55999755859375
2023-11-29T21:30:20.486+01:00,3532.792506666667,-0.6726226806640625,0.5600128173828125,-0.5081329345703125
2023-11-29T21:30:20.506+01:00,3532.812443666667,-0.6622467041015625,0.4925537109375,-0.5022430419921875
2023-11-29T21:30:20.526+01:00,3532.832380666667,-0.6230621337890625,0.423553466796875,-0.4567108154296875
2023-11-29T21:30:20.546+01:00,3532.852317666667,-0.5616455078125,0.3791961669921875,-0.4111480712890625
2023-11-29T21:30:20.566+01:00,3532.872255666667,-0.5183868408203125,0.3952178955078125,-0.387054443359375
2023-11-29T21:30:20.586+01:00,3532.892192666667,-0.4599609375,0.34710693359375,-0.3548431396484375
2023-11-29T21:30:20.606+01:00,3532.912129666667,-0.38140869140625,0.2987213134765625,-0.3470458984375
2023-11-29T21:30:20.625+01:00,3532.932066666667,-0.367156982421875,0.3314208984375,-0.3407135009765625
2023-11-29T21:30:20.645+01:00,3532.952003666667,-0.3612823486328125,0.31439208984375,-0.3178253173828125
2023-11-29T21:30:20.666+01:00,3532.971941666667,-0.3136138916015625,0.255645751953125,-0.2658538818359375
2023-11-29T21:30:20.686+01:00,3532.991878666667,-0.2146148681640625,0.260528564453125,-0.2324066162109375
2023-11-29T21:30:20.705+01:00,3533.011815666667,-0.14398193359375,0.3018798828125,-0.2174224853515625
2023-11-29T21:30:20.725+01:00,3533.031752666667,-0.0136871337890625,0.297149658203125,-0.225677490234375
2023-11-29T21:30:20.745+01:00,3533.051689666667,0.188720703125,0.2759246826171875,-0.1769256591796875
2023-11-29T21:30:20.765+01:00,3533.071627666667,0.4056854248046875,0.2461090087890625,-0.1635894775390625
2023-11-29T21:30:20.785+01:00,3533.091564666667,0.4647369384765625,0.2976531982421875,-0.222747802734375
2023-11-29T21:30:20.805+01:00,3533.111501666667,0.3694610595703125,0.4096527099609375,-0.3173675537109375
2023-11-29T21:30:20.825+01:00,3533.131438666667,0.297119140625,0.6528778076171875,-0.39520263671875
2023-11-29T21:30:20.848+01:00,3533.151375666667,0.2087554931640625,0.8046417236328125,-0.5634613037109375
2023-11-29T21:30:20.865+01:00,3533.171313666667,-0.5372467041015625,1.225799560546875,-0.72613525390625
2023-11-29T21:30:20.884+01:00,3533.191250666667,-1.5291748046875,1.5672607421875,-0.795928955078125
2023-11-29T21:30:20.905+01:00,3533.211187666667,-1.87322998046875,1.467605590820312,-0.7982330322265625
2023-11-29T21:30:20.924+01:00,3533.231124666667,-1.130264282226562,1.401382446289062,-0.9553070068359375
2023-11-29T21:30:20.944+01:00,3533.251061666667,-1.164016723632812,1.766281127929688,-1.00909423828125
2023-11-29T21:30:20.964+01:00,3533.270999666667,-1.056289672851562,1.968643188476562,-1.27008056640625
2023-11-29T21:30:20.984+01:00,3533.290936666667,-0.7540130615234375,1.50054931640625,-1.404205322265625
2023-11-29T21:30:21.004+01:00,3533.310873666667,-0.640472412109375,1.439529418945312,-1.624114990234375
2023-11-29T21:30:21.024+01:00,3533.330810666667,-0.5822296142578125,1.528366088867188,-1.684783935546875
2023-11-29T21:30:21.044+01:00,3533.350747666667,-0.6429443359375,1.607864379882812,-1.858627319335938
2023-11-29T21:30:21.064+01:00,3533.370685666667,-0.4522705078125,1.37969970703125,-1.846771240234375
2023-11-29T21:30:21.084+01:00,3533.390622666667,-0.330718994140625,1.17242431640625,-1.77459716796875
2023-11-29T21:30:21.104+01:00,3533.410559666667,-0.67608642578125,1.352859497070312,-1.703170776367188
2023-11-29T21:30:21.124+01:00,3533.430496666667,-1.251388549804688,1.50445556640625,-1.654083251953125
2023-11-29T21:30:21.144+01:00,3533.450433666667,-1.603424072265625,1.205612182617188,-1.505645751953125
2023-11-29T21:30:21.164+01:00,3533.470371666667,-1.532745361328125,0.8609771728515625,-1.27471923828125
2023-11-29T21:30:21.184+01:00,3533.490308666667,-1.274002075195312,0.72119140625,-0.9294586181640625
2023-11-29T21:30:21.204+01:00,3533.510245666667,-1.067108154296875,0.6714935302734375,-0.69378662109375
2023-11-29T21:30:21.224+01:00,3533.53018325,-0.7691497802734375,0.7031707763671875,-0.4824981689453125
2023-11-29T21:30:21.244+01:00,3533.55012025,-0.3016510009765625,0.4442901611328125,-0.174560546875
2023-11-29T21:30:21.263+01:00,3533.57005825,0.1775665283203125,0.1242523193359375,-0.03619384765625
2023-11-29T21:30:21.283+01:00,3533.58999525,0.3707122802734375,0.141571044921875,-0.0313568115234375
2023-11-29T21:30:21.303+01:00,3533.60993225,0.4813385009765625,0.238128662109375,-0.03900146484375
2023-11-29T21:30:21.323+01:00,3533.62986925,0.5259552001953125,0.4429473876953125,0.0831146240234375
2023-11-29T21:30:21.343+01:00,3533.64980625,0.7081146240234375,0.78656005859375,-0.0942535400390625
2023-11-29T21:30:21.363+01:00,3533.66974425,0.87408447265625,0.480010986328125,-0.13433837890625
2023-11-29T21:30:21.383+01:00,3533.68968125,1.292251586914062,0.1504058837890625,0.04107666015625
2023-11-29T21:30:21.403+01:00,3533.70961825,1.516265869140625,0.1733551025390625,0.1641998291015625
2023-11-29T21:30:21.423+01:00,3533.72955525,1.79571533203125,0.287078857421875,0.482635498046875
2023-11-29T21:30:21.443+01:00,3533.74949225,2.078231811523438,0.265777587890625,0.985687255859375
2023-11-29T21:30:21.463+01:00,3533.76943025,2.2249755859375,0.240234375,1.448577880859375
2023-11-29T21:30:21.483+01:00,3533.78936725,1.959243774414062,0.4151153564453125,1.594085693359375
2023-11-29T21:30:21.503+01:00,3533.80930425,1.145797729492188,0.831024169921875,1.430999755859375
2023-11-29T21:30:21.523+01:00,3533.82924125,0.061737060546875,0.5293121337890625,0.9960479736328125
2023-11-29T21:30:21.543+01:00,3533.84917825,-1.144729614257812,1.154510498046875,0.5797882080078125
2023-11-29T21:30:21.562+01:00,3533.86911625,-2.54302978515625,0.9957275390625,0.1896514892578125
2023-11-29T21:30:21.582+01:00,3533.88905325,-4.265716552734375,0.8714141845703125,-0.1883392333984375
2023-11-29T21:30:21.602+01:00,3533.90899025,-5.095443725585938,2.0130615234375,-1.381271362304688
2023-11-29T21:30:21.622+01:00,3533.92892725,-2.50360107421875,1.41748046875,-0.850372314453125
2023-11-29T21:30:21.642+01:00,3533.94886425,-2.049285888671875,0.66259765625,-1.094009399414062
2023-11-29T21:30:21.662+01:00,3533.96880125,-2.63372802734375,-0.012664794921875,-1.328369140625
2023-11-29T21:30:21.682+01:00,3533.98873925,-2.3616943359375,-1.083236694335938,-0.6805877685546875
2023-11-29T21:30:21.702+01:00,3534.00867625,-2.133758544921875,-1.630386352539062,-0.4676055908203125
2023-11-29T21:30:21.722+01:00,3534.02861325,-1.841934204101562,-0.879547119140625,-0.52703857421875
2023-11-29T21:30:21.742+01:00,3534.04855025,-1.66070556640625,0.026885986328125,-0.744232177734375
2023-11-29T21:30:21.762+01:00,3534.06848725,-1.634201049804688,0.66717529296875,-0.752532958984375
2023-11-29T21:30:21.782+01:00,3534.08842525,-1.589492797851562,0.9082794189453125,-0.802978515625
2023-11-29T21:30:21.802+01:00,3534.10836225,-1.478866577148438,1.340362548828125,-1.014129638671875
2023-11-29T21:30:21.822+01:00,3534.12829925,-1.318405151367188,1.267684936523438,-1.064849853515625
2023-11-29T21:30:21.842+01:00,3534.14823625,-1.266510009765625,0.664459228515625,-1.004257202148438
2023-11-29T21:30:21.862+01:00,3534.16817325,-1.120681762695312,0.04937744140625,-0.9740447998046875
2023-11-29T21:30:21.881+01:00,3534.18811125,-1.073486328125,-0.0332489013671875,-1
2023-11-29T21:30:21.901+01:00,3534.20804825,-1.1328125,0.048187255859375,-0.977142333984375
2023-11-29T21:30:21.921+01:00,3534.22798525,-1.2197265625,0.1377105712890625,-0.928436279296875
2023-11-29T21:30:21.941+01:00,3534.24792225,-1.169418334960938,0.1956329345703125,-0.979949951171875
2023-11-29T21:30:21.961+01:00,3534.26785925,-1.100982666015625,0.246002197265625,-0.9059600830078125
2023-11-29T21:30:21.981+01:00,3534.28779725,-1.109054565429688,0.3367156982421875,-0.8851165771484375
2023-11-29T21:30:22.001+01:00,3534.30773425,-1.109481811523438,0.366729736328125,-0.8018646240234375
2023-11-29T21:30:22.021+01:00,3534.32767125,-1.009201049804688,0.423065185546875,-0.723724365234375
2023-11-29T21:30:22.041+01:00,3534.34760825,-0.9477081298828125,0.512908935546875,-0.6237945556640625
2023-11-29T21:30:22.061+01:00,3534.36754525,-0.9395904541015625,0.6951141357421875,-0.5493621826171875
2023-11-29T21:30:22.081+01:00,3534.38748225,-0.9557037353515625,0.806396484375,-0.476837158203125
2023-11-29T21:30:22.101+01:00,3534.40742025,-0.9779205322265625,0.7901458740234375,-0.3402862548828125
2023-11-29T21:30:22.121+01:00,3534.42735725,-1.051895141601562,0.716552734375,-0.2454681396484375
2023-11-29T21:30:22.141+01:00,3534.44729425,-1.087921142578125,0.6793365478515625,-0.148773193359375
2023-11-29T21:30:22.161+01:00,3534.46723125,-1.044143676757812,0.7030792236328125,-0.1020965576171875
2023-11-29T21:30:22.181+01:00,3534.48716825,-1.08740234375,0.6983489990234375,-0.0367584228515625
2023-11-29T21:30:22.200+01:00,3534.50710625,-1.222000122070312,0.6767120361328125,0.0184326171875
2023-11-29T21:30:22.220+01:00,3534.527043041667,-1.279144287109375,0.6689453125,0.083251953125
2023-11-29T21:30:22.240+01:00,3534.546980041667,-1.25390625,0.6722412109375,0.1233673095703125
2023-11-29T21:30:22.260+01:00,3534.566917041667,-1.193206787109375,0.6800994873046875,0.1121673583984375
2023-11-29T21:30:22.280+01:00,3534.586854041667,-1.082290649414062,0.68280029296875,0.0927886962890625
2023-11-29T21:30:22.300+01:00,3534.606792041667,-0.957244873046875,0.6720733642578125,0.07684326171875
2023-11-29T21:30:22.320+01:00,3534.626729041667,-0.8677978515625,0.6539459228515625,0.0495758056640625
2023-11-29T21:30:22.340+01:00,3534.646666041667,-0.7769775390625,0.6848602294921875,0.0330810546875
2023-11-29T21:30:22.360+01:00,3534.666603041667,-0.6895599365234375,0.6913604736328125,-0.0307464599609375
2023-11-29T21:30:22.380+01:00,3534.686540041667,-0.639068603515625,0.710845947265625,-0.0599365234375
2023-11-29T21:30:22.400+01:00,3534.706477041667,-0.623382568359375,0.752655029296875,-0.1143035888671875
2023-11-29T21:30:22.420+01:00,3534.726415041667,-0.5544891357421875,0.7969207763671875,-0.22216796875
2023-11-29T21:30:22.440+01:00,3534.746352041667,-0.4598236083984375,0.7635650634765625,-0.35321044921875
2023-11-29T21:30:22.460+01:00,3534.766289041667,-0.451629638671875,0.6945648193359375,-0.4386138916015625
2023-11-29T21:30:22.480+01:00,3534.786226041667,-0.4745330810546875,0.64849853515625,-0.4093017578125
2023-11-29T21:30:22.500+01:00,3534.806163041667,-0.443206787109375,0.5977935791015625,-0.389404296875
2023-11-29T21:30:22.520+01:00,3534.826101041667,-0.352752685546875,0.59088134765625,-0.3932342529296875
2023-11-29T21:30:22.539+01:00,3534.846038041667,-0.2851104736328125,0.6132049560546875,-0.3929901123046875
2023-11-29T21:30:22.559+01:00,3534.865975041667,-0.2390899658203125,0.63421630859375,-0.354949951171875
2023-11-29T21:30:22.579+01:00,3534.885912041667,-0.19964599609375,0.61676025390625,-0.2935638427734375
2023-11-29T21:30:22.599+01:00,3534.905849041667,-0.1630859375,0.589324951171875,-0.2070159912109375
2023-11-29T21:30:22.619+01:00,3534.925787041667,-0.1246490478515625,0.58831787109375,-0.18035888671875
2023-11-29T21:30:22.639+01:00,3534.945724041667,-0.061859130859375,0.6414947509765625,-0.1544189453125
2023-11-29T21:30:22.659+01:00,3534.965661041667,-0.0192718505859375,0.6538238525390625,-0.129638671875
2023-11-29T21:30:22.679+01:00,3534.985598041667,0.0769195556640625,0.627593994140625,-0.1321563720703125
2023-11-29T21:30:22.699+01:00,3535.005535041667,0.23663330078125,0.628173828125,-0.134124755859375
2023-11-29T21:30:22.719+01:00,3535.025472041667,0.417877197265625,0.5773773193359375,-0.1163482666015625
2023-11-29T21:30:22.739+01:00,3535.045410041667,0.52777099609375,0.484466552734375,0.0539703369140625
2023-11-29T21:30:22.759+01:00,3535.065347041667,0.295379638671875,0.4624786376953125,0.1545562744140625
2023-11-29T21:30:22.779+01:00,3535.085284041667,-0.0730133056640625,0.5659332275390625,0.2849884033203125
2023-11-29T21:30:22.799+01:00,3535.105221041667,-0.4185333251953125,0.557861328125,0.1746826171875
2023-11-29T21:30:22.819+01:00,3535.125158041667,-1.073226928710938,0.89306640625,-0.0586395263671875
2023-11-29T21:30:22.839+01:00,3535.145096041667,-2.126266479492188,1.496749877929688,-0.1791229248046875
2023-11-29T21:30:22.858+01:00,3535.165033041667,-2.54644775390625,1.886367797851562,-0.470123291015625
2023-11-29T21:30:22.878+01:00,3535.184970041667,-1.737747192382812,1.963714599609375,-0.5754241943359375
2023-11-29T21:30:22.898+01:00,3535.204907041667,-1.656585693359375,2.218780517578125,-0.8490753173828125
2023-11-29T21:30:22.918+01:00,3535.224844041667,-1.386749267578125,2.348709106445312,-1.311431884765625
2023-11-29T21:30:22.938+01:00,3535.244782041667,-0.997802734375,1.912887573242188,-1.358596801757812
2023-11-29T21:30:22.958+01:00,3535.264719041667,-0.6175079345703125,1.408843994140625,-1.280532836914062
2023-11-29T21:30:22.978+01:00,3535.284656041667,-0.1735076904296875,1.343185424804688,-1.522537231445312
2023-11-29T21:30:22.998+01:00,3535.304593041667,0.20220947265625,1.34149169921875,-1.352264404296875
2023-11-29T21:30:23.018+01:00,3535.324530041667,0.30560302734375,0.84991455078125,-1.361984252929688
2023-11-29T21:30:23.038+01:00,3535.344467041667,0.012176513671875,0.5260772705078125,-1.054458618164062
2023-11-29T21:30:23.058+01:00,3535.364405041667,-0.3565673828125,0.6754302978515625,-0.8175048828125
2023-11-29T21:30:23.078+01:00,3535.384342041667,-0.429931640625,1.064865112304688,-0.703277587890625
2023-11-29T21:30:23.098+01:00,3535.404279041667,-0.391876220703125,1.228805541992188,-0.6802978515625
2023-11-29T21:30:23.118+01:00,3535.424216041667,-0.3842620849609375,1.09649658203125,-0.7128448486328125
2023-11-29T21:30:23.138+01:00,3535.444153041667,-0.254180908203125,1.180877685546875,-0.779632568359375
2023-11-29T21:30:23.157+01:00,3535.464090041667,-0.1063385009765625,1.131271362304688,-0.8399200439453125
2023-11-29T21:30:23.177+01:00,3535.484028041667,0.042755126953125,0.9388427734375,-0.806793212890625
2023-11-29T21:30:23.197+01:00,3535.503965041667,0.0440521240234375,0.8805389404296875,-0.71502685546875
2023-11-29T21:30:23.217+01:00,3535.523902,0.0159759521484375,0.9296722412109375,-0.6232452392578125
2023-11-29T21:30:23.237+01:00,3535.543839,-0.08636474609375,0.9163360595703125,-0.708404541015625
2023-11-29T21:30:23.257+01:00,3535.563776,-0.391387939453125,0.720245361328125,-0.79522705078125
2023-11-29T21:30:23.277+01:00,3535.583714,-0.7739105224609375,0.397491455078125,-0.860015869140625
2023-11-29T21:30:23.297+01:00,3535.603651,-1.0384521484375,0.0900726318359375,-0.9042816162109375
2023-11-29T21:30:23.317+01:00,3535.623588,-1.17034912109375,-0.28265380859375,-0.870941162109375
2023-11-29T21:30:23.337+01:00,3535.643525,-1.086990356445312,-0.7005767822265625,-0.7939300537109375
2023-11-29T21:30:23.357+01:00,3535.663462,-0.8817901611328125,-0.910369873046875,-0.5652008056640625
2023-11-29T21:30:23.377+01:00,3535.683399,-0.7482147216796875,-0.673553466796875,-0.507171630859375
2023-11-29T21:30:23.397+01:00,3535.703337,-0.823455810546875,-0.21173095703125,-0.3500518798828125
2023-11-29T21:30:23.417+01:00,3535.723274,-0.793914794921875,0.150665283203125,0.2126617431640625
2023-11-29T21:30:23.437+01:00,3535.743211,-1.037796020507812,0.5540313720703125,0.4788360595703125
2023-11-29T21:30:23.457+01:00,3535.763148,-1.028793334960938,0.0023193359375,1.783203125
2023-11-29T21:30:23.476+01:00,3535.783085,-1.225921630859375,1.138992309570312,-0.387359619140625
2023-11-29T21:30:23.496+01:00,3535.803023,-1.706466674804688,0.17144775390625,0.1329803466796875
2023-11-29T21:30:23.516+01:00,3535.82296,-1.751678466796875,1.187088012695312,-0.2287139892578125
2023-11-29T21:30:23.536+01:00,3535.842897,-1.151153564453125,1.2177734375,-0.02410888671875
2023-11-29T21:30:23.557+01:00,3535.862834,-0.994293212890625,0.8782806396484375,0.156158447265625
2023-11-29T21:30:23.576+01:00,3535.882771,-1.348541259765625,0.2635955810546875,0.1908111572265625
2023-11-29T21:30:23.596+01:00,3535.902708,-1.610305786132812,-0.21136474609375,0.2490692138671875
2023-11-29T21:30:23.616+01:00,3535.922646,-1.78399658203125,-0.493499755859375,0.1492767333984375
2023-11-29T21:30:23.636+01:00,3535.942583,-1.95941162109375,-0.3864898681640625,-0.04339599609375
2023-11-29T21:30:23.656+01:00,3535.96252,-1.963516235351562,-0.0879974365234375,-0.1215972900390625
2023-11-29T21:30:23.676+01:00,3535.982457,-2.06365966796875,0.0552215576171875,-0.1387939453125
2023-11-29T21:30:23.696+01:00,3536.002394,-2.214889526367188,0.374664306640625,-0.380218505859375
2023-11-29T21:30:23.716+01:00,3536.022331,-2.173629760742188,0.4088287353515625,-0.633209228515625
2023-11-29T21:30:23.736+01:00,3536.042269,-2.137893676757812,0.4178466796875,-0.7236328125
2023-11-29T21:30:23.756+01:00,3536.062206,-2.036209106445312,0.3074188232421875,-0.7337799072265625
2023-11-29T21:30:23.775+01:00,3536.082143,-2.021347045898438,0.1896209716796875,-1.02789306640625
2023-11-29T21:30:23.795+01:00,3536.10208,-1.862075805664062,0.3408966064453125,-1.032669067382812
2023-11-29T21:30:23.815+01:00,3536.122017,-1.777023315429688,0.2964935302734375,-0.9716949462890625
2023-11-29T21:30:23.835+01:00,3536.141955,-1.802352905273438,0.06622314453125,-1.07373046875
2023-11-29T21:30:23.855+01:00,3536.161892,-1.6514892578125,-0.0464935302734375,-0.799468994140625
2023-11-29T21:30:23.875+01:00,3536.181829,-1.462646484375,0.838226318359375,-1.162506103515625
2023-11-29T21:30:23.895+01:00,3536.201766,-1.389678955078125,0.250030517578125,-0.889984130859375
2023-11-29T21:30:23.915+01:00,3536.221703,-1.232818603515625,0.3628692626953125,-0.5771484375
2023-11-29T21:30:23.935+01:00,3536.24164,-1.0665283203125,0.5462799072265625,-0.502532958984375
2023-11-29T21:30:23.955+01:00,3536.261578,-0.7891387939453125,0.6800384521484375,-0.3763885498046875
2023-11-29T21:30:23.975+01:00,3536.281515,-0.7389373779296875,0.5922698974609375,-0.33734130859375
2023-11-29T21:30:23.995+01:00,3536.301452,-0.7662811279296875,0.7415618896484375,-0.4539642333984375
2023-11-29T21:30:24.015+01:00,3536.321389,-0.8430633544921875,0.6303558349609375,-0.4015350341796875
2023-11-29T21:30:24.035+01:00,3536.341326,-0.9457855224609375,0.3240966796875,-0.32568359375
2023-11-29T21:30:24.055+01:00,3536.361263,-0.9896392822265625,0.0922088623046875,-0.284271240234375
2023-11-29T21:30:24.075+01:00,3536.381201,-1.05169677734375,0.1207122802734375,-0.2571868896484375
2023-11-29T21:30:24.094+01:00,3536.401138,-1.160263061523438,0.221405029296875,-0.3130340576171875
2023-11-29T21:30:24.114+01:00,3536.421075,-1.1064453125,0.283233642578125,-0.32568359375
2023-11-29T21:30:24.134+01:00,3536.441012,-0.9033966064453125,0.216705322265625,-0.342132568359375
2023-11-29T21:30:24.154+01:00,3536.460949,-0.74249267578125,0.2379913330078125,-0.3098907470703125
2023-11-29T21:30:24.174+01:00,3536.480887,-0.7372589111328125,0.382598876953125,-0.3235626220703125
2023-11-29T21:30:24.194+01:00,3536.500824,-0.8305511474609375,0.5139617919921875,-0.3501434326171875
2023-11-29T21:30:24.214+01:00,3536.520760875,-0.8960723876953125,0.546966552734375,-0.3323822021484375
2023-11-29T21:30:24.234+01:00,3536.540697875,-0.9343414306640625,0.5314483642578125,-0.2720947265625
2023-11-29T21:30:24.254+01:00,3536.560634875,-0.9785919189453125,0.57427978515625,-0.2232208251953125
2023-11-29T21:30:24.274+01:00,3536.580571875,-1.130874633789062,0.6372222900390625,-0.22296142578125
2023-11-29T21:30:24.294+01:00,3536.600509875,-1.239288330078125,0.7097015380859375,-0.2040252685546875
2023-11-29T21:30:24.314+01:00,3536.620446875,-1.178009033203125,0.6968536376953125,-0.166290283203125
2023-11-29T21:30:24.334+01:00,3536.640383875,-1.070510864257812,0.6214141845703125,-0.2201995849609375
2023-11-29T21:30:24.354+01:00,3536.660320875,-1.0511474609375,0.5546417236328125,-0.2096405029296875
2023-11-29T21:30:24.374+01:00,3536.680257875,-1.00360107421875,0.4881134033203125,-0.258544921875
2023-11-29T21:30:24.394+01:00,3536.700194875,-0.8992156982421875,0.513397216796875,-0.28411865234375
2023-11-29T21:30:24.413+01:00,3536.720132875,-0.7509765625,0.3655853271484375,-0.2874908447265625
2023-11-29T21:30:24.433+01:00,3536.740069875,-0.5531768798828125,0.2168426513671875,-0.271484375
2023-11-29T21:30:24.453+01:00,3536.760006875,-0.33740234375,0.143768310546875,-0.3622589111328125
2023-11-29T21:30:24.473+01:00,3536.779943875,-0.1184234619140625,0.076416015625,-0.4273529052734375
2023-11-29T21:30:24.493+01:00,3536.799880875,0.0136566162109375,-0.0213165283203125,-0.363067626953125
2023-11-29T21:30:24.513+01:00,3536.819818875,0.1854095458984375,0.0226898193359375,-0.3974609375
2023-11-29T21:30:24.533+01:00,3536.839755875,0.3300323486328125,0.1937713623046875,-0.45416259765625
2023-11-29T21:30:24.553+01:00,3536.859692875,0.3965911865234375,0.2478179931640625,-0.51611328125
2023-11-29T21:30:24.573+01:00,3536.879629875,0.378082275390625,0.3268585205078125,-0.409027099609375
2023-11-29T21:30:24.593+01:00,3536.899566875,0.2182159423828125,0.2862091064453125,-0.292205810546875
2023-11-29T21:30:24.613+01:00,3536.919503875,0.1572265625,0.2348480224609375,-0.31982421875
2023-11-29T21:30:24.633+01:00,3536.939441875,0.0277252197265625,0.2591094970703125,-0.3992919921875
2023-11-29T21:30:24.653+01:00,3536.959378875,-0.262298583984375,0.6862335205078125,-0.337615966796875
2023-11-29T21:30:24.673+01:00,3536.979315875,-1.26251220703125,0.903961181640625,-0.4082489013671875
2023-11-29T21:30:24.693+01:00,3536.999252875,-3.615341186523438,1.386611938476562,-0.34954833984375
2023-11-29T21:30:24.712+01:00,3537.019189875,-2.9361572265625,0.647674560546875,-0.0265045166015625
2023-11-29T21:30:24.733+01:00,3537.039126875,-1.050064086914062,1.25445556640625,-0.04876708984375
2023-11-29T21:30:24.753+01:00,3537.059064875,-1.1890869140625,1.668899536132812,-0.6681060791015625
2023-11-29T21:30:24.773+01:00,3537.079001875,-1.091827392578125,1.550399780273438,-0.8426055908203125
2023-11-29T21:30:24.793+01:00,3537.098938875,-0.705535888671875,1.040267944335938,-0.8246917724609375
2023-11-29T21:30:24.812+01:00,3537.118875875,-0.3368377685546875,0.7586212158203125,-0.5153656005859375
2023-11-29T21:30:24.832+01:00,3537.138812875,-0.50677490234375,0.9783477783203125,-0.828521728515625
2023-11-29T21:30:24.852+01:00,3537.158749875,-0.8079681396484375,1.351486206054688,-0.7751617431640625
2023-11-29T21:30:24.872+01:00,3537.178687875,-0.8382110595703125,1.186508178710938,-0.5307769775390625
2023-11-29T21:30:24.892+01:00,3537.198624875,-0.5828857421875,0.85736083984375,-0.2763671875
2023-11-29T21:30:24.912+01:00,3537.218561875,-0.4967803955078125,0.6289825439453125,-0.372711181640625
2023-11-29T21:30:24.932+01:00,3537.238498875,-0.3993072509765625,0.7808380126953125,-0.621307373046875
2023-11-29T21:30:24.952+01:00,3537.258435875,-0.04144287109375,0.619903564453125,-0.6558074951171875
2023-11-29T21:30:24.972+01:00,3537.278372875,0.46209716796875,-0.2575531005859375,-0.191436767578125
2023-11-29T21:30:24.992+01:00,3537.298310875,0.8263092041015625,-0.5619964599609375,0.03826904296875
2023-11-29T21:30:25.012+01:00,3537.318247875,0.6879425048828125,0.462860107421875,0.0998687744140625
2023-11-29T21:30:25.032+01:00,3537.338184875,0.185211181640625,0.7908477783203125,-0.1683197021484375
2023-11-29T21:30:25.051+01:00,3537.358121875,-0.2581024169921875,0.7457733154296875,-0.3408966064453125
2023-11-29T21:30:25.071+01:00,3537.378058875,-0.9595489501953125,1.130386352539062,-0.7116241455078125
2023-11-29T21:30:25.091+01:00,3537.397995875,-1.31121826171875,1.395004272460938,-0.5576324462890625
2023-11-29T21:30:25.111+01:00,3537.417933875,-0.8917694091796875,1.728073120117188,-0.406158447265625
2023-11-29T21:30:25.131+01:00,3537.437870875,-0.754852294921875,1.877975463867188,-0.60748291015625
2023-11-29T21:30:25.151+01:00,3537.457807875,-0.56781005859375,2.1510009765625,-0.5457000732421875
2023-11-29T21:30:25.171+01:00,3537.477744875,-0.4848175048828125,1.976791381835938,-0.4504241943359375
2023-11-29T21:30:25.191+01:00,3537.497681875,-0.2423095703125,1.824905395507812,-0.256439208984375
2023-11-29T21:30:25.211+01:00,3537.517618875,-0.2585906982421875,1.881912231445312,-0.1280670166015625
2023-11-29T21:30:25.231+01:00,3537.537557541667,-0.2196044921875,1.596084594726562,-0.0834808349609375
2023-11-29T21:30:25.251+01:00,3537.557494541667,-0.144805908203125,1.310531616210938,0.10186767578125
2023-11-29T21:30:25.271+01:00,3537.577431541667,-0.361236572265625,1.306594848632812,0.4104461669921875
2023-11-29T21:30:25.291+01:00,3537.597368541667,-0.5563812255859375,1.307876586914062,0.4757537841796875
2023-11-29T21:30:25.311+01:00,3537.617305541667,-0.846771240234375,0.9775543212890625,0.51763916015625
2023-11-29T21:30:25.331+01:00,3537.637242541667,-1.216720581054688,0.8452606201171875,0.8500823974609375
2023-11-29T21:30:25.351+01:00,3537.657180541667,-1.460098266601562,0.9574737548828125,1.035140991210938
2023-11-29T21:30:25.370+01:00,3537.677117541667,-1.902725219726562,0.1574859619140625,1.206268310546875
2023-11-29T21:30:25.390+01:00,3537.697054541667,-2.098312377929688,-0.2833251953125,0.91363525390625
2023-11-29T21:30:25.410+01:00,3537.716991541667,-2.441009521484375,-1.141693115234375,0.4052581787109375
2023-11-29T21:30:25.430+01:00,3537.736928541667,-2.17938232421875,-1.156997680664062,0.2150726318359375
2023-11-29T21:30:25.450+01:00,3537.756865541667,-2.080703735351562,-0.3521728515625,0.3468780517578125
2023-11-29T21:30:25.470+01:00,3537.776803541667,-2.17657470703125,-0.640350341796875,0.4037933349609375
2023-11-29T21:30:25.490+01:00,3537.796740541667,-2.255813598632812,-0.3762054443359375,0.36004638671875
2023-11-29T21:30:25.510+01:00,3537.816677541667,-2.227218627929688,-0.4870147705078125,0.1383056640625
2023-11-29T21:30:25.530+01:00,3537.836614541667,-2.131881713867188,-0.5159912109375,-0.1497802734375
2023-11-29T21:30:25.550+01:00,3537.856551541667,-1.919952392578125,-0.2277374267578125,-0.3010406494140625
2023-11-29T21:30:25.570+01:00,3537.876488541667,-1.80126953125,0.005859375,-0.3238677978515625
2023-11-29T21:30:25.590+01:00,3537.896426541667,-1.880950927734375,0.1669158935546875,-0.2701263427734375
2023-11-29T21:30:25.610+01:00,3537.916363541667,-1.910430908203125,0.39276123046875,-0.3147430419921875
2023-11-29T21:30:25.630+01:00,3537.936300541667,-1.843994140625,0.5623931884765625,-0.27801513671875
2023-11-29T21:30:25.650+01:00,3537.956237541667,-1.83074951171875,0.7413177490234375,-0.2271575927734375
2023-11-29T21:30:25.670+01:00,3537.976174541667,-1.872512817382812,0.8376007080078125,-0.146087646484375
2023-11-29T21:30:25.690+01:00,3537.996111541667,-1.83892822265625,0.9460296630859375,-0.0422515869140625
2023-11-29T21:30:25.709+01:00,3538.016049541667,-1.67742919921875,1.097030639648438,0.0555572509765625
2023-11-29T21:30:25.729+01:00,3538.035986541667,-1.515213012695312,1.270706176757812,0.0782928466796875
2023-11-29T21:30:25.749+01:00,3538.055923541667,-1.445510864257812,1.362136840820312,-0.0135650634765625
2023-11-29T21:30:25.769+01:00,3538.075860541667,-1.290328979492188,1.303329467773438,-0.03485107421875
2023-11-29T21:30:25.789+01:00,3538.095797541667,-1.196395874023438,1.200576782226562,-0.003021240234375
2023-11-29T21:30:25.809+01:00,3538.115734541667,-1.124435424804688,1.188690185546875,-0.0108642578125
2023-11-29T21:30:25.829+01:00,3538.135672541667,-1.024917602539062,1.359970092773438,0.0559844970703125
2023-11-29T21:30:25.851+01:00,3538.155609541667,-0.9268646240234375,1.3594970703125,0.161376953125
2023-11-29T21:30:25.869+01:00,3538.175546541667,-0.8095550537109375,1.394241333007812,0.2733612060546875
2023-11-29T21:30:25.889+01:00,3538.195483541667,-0.6784515380859375,1.207855224609375,0.2942047119140625
2023-11-29T21:30:25.909+01:00,3538.215420541667,-0.5503997802734375,0.99432373046875,0.27313232421875
2023-11-29T21:30:25.929+01:00,3538.235357541667,-0.540618896484375,0.833984375,0.25994873046875
2023-11-29T21:30:25.949+01:00,3538.255295541667,-0.5036163330078125,0.7434234619140625,0.2629241943359375
2023-11-29T21:30:25.969+01:00,3538.275232541667,-0.5150299072265625,0.690155029296875,0.2770538330078125
2023-11-29T21:30:25.989+01:00,3538.295169541667,-0.5707244873046875,0.6118927001953125,0.2959747314453125
2023-11-29T21:30:26.008+01:00,3538.315106541667,-0.6290130615234375,0.5298309326171875,0.323974609375
2023-11-29T21:30:26.028+01:00,3538.335043541667,-0.725677490234375,0.4675140380859375,0.4121856689453125
2023-11-29T21:30:26.048+01:00,3538.354980541667,-0.8587646484375,0.416229248046875,0.460845947265625
2023-11-29T21:30:26.068+01:00,3538.374917541667,-0.9554290771484375,0.471282958984375,0.259552001953125
2023-11-29T21:30:26.088+01:00,3538.394855541667,-1.06597900390625,0.649078369140625,0.0223541259765625
2023-11-29T21:30:26.108+01:00,3538.414792541667,-1.143814086914062,0.63555908203125,0.052154541015625
2023-11-29T21:30:26.128+01:00,3538.434729541667,-1.086929321289062,0.4362945556640625,0.1937713623046875
2023-11-29T21:30:26.148+01:00,3538.454666541667,-0.959716796875,0.376617431640625,0.265716552734375
2023-11-29T21:30:26.168+01:00,3538.474603541667,-0.813629150390625,0.4931793212890625,0.082275390625
2023-11-29T21:30:26.188+01:00,3538.494540541667,-0.7487030029296875,0.6198272705078125,-0.0649871826171875
2023-11-29T21:30:26.208+01:00,3538.514478541667,-0.7473297119140625,0.5584259033203125,-0.029815673828125
2023-11-29T21:30:26.228+01:00,3538.534415666667,-0.726837158203125,0.414337158203125,-0.0107879638671875
2023-11-29T21:30:26.248+01:00,3538.554352666667,-0.7958526611328125,0.516998291015625,-0.0843353271484375
2023-11-29T21:30:26.268+01:00,3538.574289666667,-0.860015869140625,0.6286163330078125,-0.1673126220703125
2023-11-29T21:30:26.288+01:00,3538.594226666667,-0.8578948974609375,0.62274169921875,-0.1358795166015625
2023-11-29T21:30:26.307+01:00,3538.614163666667,-0.8621826171875,0.5892181396484375,-0.165252685546875
2023-11-29T21:30:26.327+01:00,3538.634100666667,-0.8562164306640625,0.4905853271484375,-0.175201416015625
2023-11-29T21:30:26.347+01:00,3538.654038666667,-0.8383026123046875,0.4744720458984375,-0.1717987060546875
2023-11-29T21:30:26.367+01:00,3538.673975666667,-0.793731689453125,0.5319671630859375,-0.177947998046875
2023-11-29T21:30:26.387+01:00,3538.693912666667,-0.7981414794921875,0.452545166015625,-0.1916656494140625
2023-11-29T21:30:26.407+01:00,3538.713849666667,-0.73828125,0.4849853515625,-0.2514801025390625
2023-11-29T21:30:26.427+01:00,3538.733786666667,-0.69671630859375,0.49383544921875,-0.3803863525390625
2023-11-29T21:30:26.447+01:00,3538.753723666667,-0.611602783203125,0.4430999755859375,-0.3958587646484375
2023-11-29T21:30:26.467+01:00,3538.773661666667,-0.395416259765625,0.622589111328125,-0.197265625
2023-11-29T21:30:26.487+01:00,3538.793598666667,-0.216033935546875,0.5203094482421875,-0.453460693359375
2023-11-29T21:30:26.507+01:00,3538.813535666667,0.1015167236328125,0.7259063720703125,-0.3310089111328125
2023-11-29T21:30:26.527+01:00,3538.833472666667,0.3514251708984375,0.3236846923828125,-0.335174560546875
2023-11-29T21:30:26.547+01:00,3538.853409666667,0.704742431640625,0.3215484619140625,-0.2628173828125
2023-11-29T21:30:26.567+01:00,3538.873346666667,0.8520050048828125,0.42315673828125,-0.04364013671875
2023-11-29T21:30:26.587+01:00,3538.893283666667,0.6108856201171875,0.4621734619140625,-0.1075897216796875
2023-11-29T21:30:26.607+01:00,3538.913221666667,0.42913818359375,0.678436279296875,-0.1345367431640625
2023-11-29T21:30:26.627+01:00,3538.933158666667,0.3206329345703125,0.568389892578125,-0.09710693359375
2023-11-29T21:30:26.646+01:00,3538.953095666667,0.27154541015625,0.5723724365234375,-0.1053466796875
2023-11-29T21:30:26.666+01:00,3538.973032666667,0.1614837646484375,0.888885498046875,-0.3493804931640625
2023-11-29T21:30:26.686+01:00,3538.992969666667,-0.102691650390625,0.7317962646484375,-0.2867889404296875
2023-11-29T21:30:26.706+01:00,3539.012906666667,-0.8219757080078125,0.7305755615234375,-0.22265625
2023-11-29T21:30:26.726+01:00,3539.032844666667,-2.175079345703125,1.261825561523438,-0.119140625
2023-11-29T21:30:26.746+01:00,3539.052781666667,-2.926498413085938,1.065841674804688,0.0966033935546875
2023-11-29T21:30:26.766+01:00,3539.072718666667,-2.0052490234375,0.9717864990234375,0.1672821044921875
2023-11-29T21:30:26.786+01:00,3539.092655666667,-2.918731689453125,1.4415283203125,0.0340576171875
2023-11-29T21:30:26.806+01:00,3539.112592666667,-2.345870971679688,1.366592407226562,-0.2153167724609375
2023-11-29T21:30:26.826+01:00,3539.132529666667,-2.044143676757812,1.236312866210938,-0.43231201171875
2023-11-29T21:30:26.846+01:00,3539.152466666667,-1.82269287109375,1.536361694335938,-0.6256256103515625
2023-11-29T21:30:26.866+01:00,3539.172404666667,-1.404525756835938,1.55316162109375,-0.61669921875
2023-11-29T21:30:26.886+01:00,3539.192341666667,-1.068008422851562,1.1446533203125,-0.4423675537109375
2023-11-29T21:30:26.906+01:00,3539.212278666667,-0.7917327880859375,0.47943115234375,-0.3294219970703125
2023-11-29T21:30:26.926+01:00,3539.232215666667,-0.66290283203125,0.5862274169921875,-0.401031494140625
2023-11-29T21:30:26.945+01:00,3539.252152666667,-0.8675689697265625,0.846954345703125,-0.5877685546875
2023-11-29T21:30:26.965+01:00,3539.272089666667,-1.070159912109375,0.6016693115234375,-0.782379150390625
2023-11-29T21:30:26.985+01:00,3539.292027666667,-1.188232421875,0.1197662353515625,-0.517608642578125
2023-11-29T21:30:27.005+01:00,3539.311964666667,-1.234619140625,-0.2358856201171875,-0.587890625
2023-11-29T21:30:27.025+01:00,3539.331901666667,-1.270309448242188,0.0769195556640625,-0.620513916015625
2023-11-29T21:30:27.045+01:00,3539.351838666667,-1.115005493164062,0.21014404296875,-0.6732177734375
2023-11-29T21:30:27.065+01:00,3539.371775666667,-0.904449462890625,0.0216522216796875,-0.5728302001953125
2023-11-29T21:30:27.085+01:00,3539.391712666667,-0.76751708984375,0.1641998291015625,-0.452972412109375
2023-11-29T21:30:27.105+01:00,3539.411649666667,-0.7519378662109375,0.2211151123046875,-0.455535888671875
2023-11-29T21:30:27.125+01:00,3539.431587666667,-0.6907501220703125,0.2718353271484375,-0.4262542724609375
2023-11-29T21:30:27.145+01:00,3539.451524666667,-0.6855010986328125,0.386199951171875,-0.29296875
2023-11-29T21:30:27.165+01:00,3539.471461666667,-0.7708587646484375,0.6566619873046875,-0.2622222900390625
2023-11-29T21:30:27.185+01:00,3539.491398666667,-0.78607177734375,0.7216033935546875,-0.30352783203125
2023-11-29T21:30:27.205+01:00,3539.511335666667,-0.7055511474609375,0.5321197509765625,-0.251617431640625
2023-11-29T21:30:27.225+01:00,3539.531271416667,-0.6403961181640625,0.18914794921875,-0.2876129150390625
2023-11-29T21:30:27.245+01:00,3539.551208416667,-0.568206787109375,0.074676513671875,-0.156158447265625
2023-11-29T21:30:27.264+01:00,3539.571146416667,-0.580535888671875,0.3492889404296875,-0.0735321044921875
2023-11-29T21:30:27.284+01:00,3539.591083416667,-0.574859619140625,0.55230712890625,-0.1024627685546875
2023-11-29T21:30:27.304+01:00,3539.611020416667,-0.5157318115234375,0.52960205078125,-0.1490936279296875
2023-11-29T21:30:27.324+01:00,3539.630957416667,-0.52471923828125,0.4737701416015625,-0.1964874267578125
2023-11-29T21:30:27.344+01:00,3539.650894416667,-0.50482177734375,0.4203338623046875,-0.2083282470703125
2023-11-29T21:30:27.364+01:00,3539.670831416667,-0.522369384765625,0.4051971435546875,-0.225006103515625
2023-11-29T21:30:27.384+01:00,3539.690768416667,-0.5180511474609375,0.4863739013671875,-0.2249298095703125
2023-11-29T21:30:27.404+01:00,3539.710706416667,-0.60516357421875,0.5388336181640625,-0.2340545654296875
2023-11-29T21:30:27.424+01:00,3539.730643416667,-0.814453125,0.6087646484375,-0.2642059326171875
2023-11-29T21:30:27.444+01:00,3539.750580416667,-1.104461669921875,0.679656982421875,-0.3303375244140625
2023-11-29T21:30:27.464+01:00,3539.770517416667,-1.342071533203125,0.7510986328125,-0.3232269287109375
2023-11-29T21:30:27.484+01:00,3539.790454416667,-1.57464599609375,0.7260589599609375,-0.22802734375
2023-11-29T21:30:27.504+01:00,3539.810391416667,-1.605270385742188,0.641387939453125,-0.1463623046875
2023-11-29T21:30:27.524+01:00,3539.830328416667,-1.483734130859375,0.6539154052734375,-0.0916748046875
2023-11-29T21:30:27.544+01:00,3539.850266416667,-1.33868408203125,0.718780517578125,-0.0806732177734375
2023-11-29T21:30:27.564+01:00,3539.870203416667,-1.174407958984375,0.6383056640625,-0.020751953125
2023-11-29T21:30:27.583+01:00,3539.890140416667,-0.983551025390625,0.4730682373046875,-0.0078582763671875
2023-11-29T21:30:27.603+01:00,3539.910077416667,-0.838409423828125,0.3693084716796875,0.018646240234375
2023-11-29T21:30:27.623+01:00,3539.930014416667,-0.72119140625,0.30621337890625,0.00030517578125
2023-11-29T21:30:27.643+01:00,3539.949951416667,-0.62615966796875,0.2983245849609375,0.0007171630859375
2023-11-29T21:30:27.663+01:00,3539.969888416667,-0.5690155029296875,0.218780517578125,0.016510009765625
2023-11-29T21:30:27.683+01:00,3539.989826416667,-0.5353240966796875,0.241668701171875,-0.0020751953125
2023-11-29T21:30:27.703+01:00,3540.009763416667,-0.5440826416015625,0.233184814453125,-0.039581298828125
2023-11-29T21:30:27.723+01:00,3540.029700416667,-0.5784454345703125,0.2260894775390625,-0.0536041259765625
2023-11-29T21:30:27.743+01:00,3540.049637416667,-0.6635894775390625,0.26226806640625,-0.0731353759765625
2023-11-29T21:30:27.763+01:00,3540.069574416667,-0.71807861328125,0.2975006103515625,-0.0909271240234375
2023-11-29T21:30:27.783+01:00,3540.089511416667,-0.7418670654296875,0.3201904296875,-0.0907745361328125
2023-11-29T21:30:27.803+01:00,3540.109448416667,-0.761993408203125,0.34515380859375,-0.08575439453125
2023-11-29T21:30:27.823+01:00,3540.129386416667,-0.786590576171875,0.366302490234375,-0.0751495361328125
2023-11-29T21:30:27.843+01:00,3540.149323416667,-0.8069610595703125,0.365264892578125,-0.0757598876953125
2023-11-29T21:30:27.863+01:00,3540.169260416667,-0.7937774658203125,0.3896636962890625,-0.07525634765625
2023-11-29T21:30:27.883+01:00,3540.189197416667,-0.8017578125,0.40771484375,-0.0739898681640625
2023-11-29T21:30:27.903+01:00,3540.209134416667,-0.833770751953125,0.4152374267578125,-0.07916259765625
2023-11-29T21:30:27.923+01:00,3540.229071416667,-0.896820068359375,0.434661865234375,-0.1078948974609375
2023-11-29T21:30:27.942+01:00,3540.249008416667,-0.9550018310546875,0.448638916015625,-0.13775634765625
2023-11-29T21:30:27.962+01:00,3540.268946416667,-0.9975128173828125,0.474334716796875,-0.1819305419921875
2023-11-29T21:30:27.982+01:00,3540.288883416667,-1.050186157226562,0.4917755126953125,-0.2198638916015625
2023-11-29T21:30:28.002+01:00,3540.308820416667,-1.05499267578125,0.506988525390625,-0.3223876953125
2023-11-29T21:30:28.022+01:00,3540.328757416667,-0.9897308349609375,0.5115509033203125,-0.4255218505859375
2023-11-29T21:30:28.042+01:00,3540.348694416667,-0.945098876953125,0.4429168701171875,-0.478424072265625
2023-11-29T21:30:28.062+01:00,3540.368631416667,-0.9427947998046875,0.287445068359375,-0.506561279296875
2023-11-29T21:30:28.082+01:00,3540.388568416667,-0.960723876953125,0.345062255859375,-0.516571044921875
2023-11-29T21:30:28.102+01:00,3540.408506416667,-0.98614501953125,0.3305206298828125,-0.55145263671875
2023-11-29T21:30:28.122+01:00,3540.428443416667,-1.018722534179688,0.31634521484375,-0.5770416259765625
2023-11-29T21:30:28.142+01:00,3540.448380416667,-1.053939819335938,0.3574981689453125,-0.56536865234375
2023-11-29T21:30:28.162+01:00,3540.468317416667,-1.06591796875,0.3849945068359375,-0.5527191162109375
2023-11-29T21:30:28.181+01:00,3540.488254416667,-1.08038330078125,0.4066009521484375,-0.561065673828125
2023-11-29T21:30:28.201+01:00,3540.508191416667,-1.08123779296875,0.4507598876953125,-0.5485382080078125
2023-11-29T21:30:28.222+01:00,3540.528128375,-0.9906005859375,0.46331787109375,-0.5103759765625
2023-11-29T21:30:28.241+01:00,3540.548065375,-0.8491363525390625,0.46246337890625,-0.4681396484375
2023-11-29T21:30:28.261+01:00,3540.568003375,-0.7679290771484375,0.40216064453125,-0.4527740478515625
2023-11-29T21:30:28.281+01:00,3540.587940375,-0.7902984619140625,0.37542724609375,-0.4317474365234375
2023-11-29T21:30:28.301+01:00,3540.607877375,-0.8785400390625,0.3460845947265625,-0.400543212890625
2023-11-29T21:30:28.321+01:00,3540.627814375,-0.98004150390625,0.29644775390625,-0.36334228515625
2023-11-29T21:30:28.341+01:00,3540.647751375,-1.01885986328125,0.24407958984375,-0.2957000732421875
2023-11-29T21:30:28.361+01:00,3540.667688375,-0.9937286376953125,0.202178955078125,-0.2426300048828125
2023-11-29T21:30:28.381+01:00,3540.687625375,-0.9493408203125,0.190185546875,-0.2037506103515625
2023-11-29T21:30:28.401+01:00,3540.707563375,-0.8958892822265625,0.1870574951171875,-0.16754150390625
2023-11-29T21:30:28.421+01:00,3540.727500375,-0.8361358642578125,0.200408935546875,-0.1497802734375
2023-11-29T21:30:28.441+01:00,3540.747437375,-0.7787933349609375,0.2180328369140625,-0.1346282958984375
2023-11-29T21:30:28.461+01:00,3540.767374375,-0.7313232421875,0.24566650390625,-0.115753173828125
2023-11-29T21:30:28.481+01:00,3540.787311375,-0.700775146484375,0.271728515625,-0.11639404296875
2023-11-29T21:30:28.501+01:00,3540.807248375,-0.67706298828125,0.2954254150390625,-0.10888671875
2023-11-29T21:30:28.521+01:00,3540.827185375,-0.6392974853515625,0.3079681396484375,-0.1049652099609375
2023-11-29T21:30:28.541+01:00,3540.847123375,-0.6147613525390625,0.337188720703125,-0.1152801513671875
2023-11-29T21:30:28.560+01:00,3540.867060375,-0.631195068359375,0.35833740234375,-0.1059417724609375
2023-11-29T21:30:28.580+01:00,3540.886997375,-0.6485595703125,0.34814453125,-0.0930328369140625
2023-11-29T21:30:28.600+01:00,3540.906934375,-0.6906890869140625,0.353668212890625,-0.110137939453125
2023-11-29T21:30:28.620+01:00,3540.926871375,-0.8118133544921875,0.4112701416015625,-0.1614227294921875
2023-11-29T21:30:28.640+01:00,3540.946808375,-1.012237548828125,0.4808502197265625,-0.2399139404296875
2023-11-29T21:30:28.660+01:00,3540.966745375,-1.200119018554688,0.5171356201171875,-0.356231689453125
2023-11-29T21:30:28.680+01:00,3540.986682375,-1.25872802734375,0.5048980712890625,-0.4511260986328125
2023-11-29T21:30:28.700+01:00,3541.006620375,-1.135101318359375,0.4761810302734375,-0.3637237548828125
2023-11-29T21:30:28.720+01:00,3541.026557375,-1.011520385742188,0.31915283203125,-0.295318603515625
2023-11-29T21:30:28.740+01:00,3541.046494375,-0.960113525390625,0.3499298095703125,-0.3220367431640625
2023-11-29T21:30:28.760+01:00,3541.066431375,-0.92376708984375,0.4524383544921875,-0.4447021484375
2023-11-29T21:30:28.780+01:00,3541.086368375,-0.909637451171875,0.4991302490234375,-0.477081298828125
2023-11-29T21:30:28.800+01:00,3541.106305375,-0.909332275390625,0.401458740234375,-0.437835693359375
